time,timestamp,recordtime,lat,long,alt,speed,course,verticalAccuracy,horizontalAccuracy,locTimeStamp,accelerationX,accelerationY,accelerationZ,HeadingX,HeadingY,HeadingZ,TrueHeading,MagneticHeading,HeadingAccuracy,RotationX,RotationY,RotationZ,motionYaw,motionRoll,motionPitch,motionRotationRateX,motionRotationRateY,motionRotationRateZ,motionUserAccelerationX,motionUserAccelerationY,motionUserAccelerationZ,Event
2013-09-19 16:56:53.766,1,0.02,51.03962,13.79292,103,-1,-1,96,100,1379602613,0.02410889,-0.3421478,-1.082184,14.81874,-4.372559,-48.91495,308.3547,305.2163,10,0.03060904,0.1728075,-0.003016563,0.028881,0.01099207,0.2945859,-0.04965181,0.5056925,0.0458232,0.01639816,-0.03387512,-0.08576842,1
2013-09-19 16:56:53.799,2,0.04,51.03953,13.793,102,0.92,-1,48,50,1379602613,0.02410889,-0.3421478,-1.082184,15.76047,-4.238037,-48.35431,306.5759,303.4375,10,-0.02839489,-0.2275261,0.03593217,0.02914676,0.01542586,0.2944804,0.02243572,0.1682356,-0.007058377,0.008416862,-0.04995206,-0.1272977,1
2013-09-19 16:56:53.838,3,0.06,51.03953,13.793,102,0.92,-1,48,50,1379602613,0.06689453,-0.3575287,-0.9258575,17.30757,-4.977951,-47.86377,305.1462,302.0078,10,-0.1652401,-0.143367,0.2065676,0.02914676,0.01542586,0.2944804,0.02243572,0.1682356,-0.007058377,0.008416862,-0.04995206,-0.1272977,1
2013-09-19 16:56:53.873,4,0.08,51.03953,13.793,102,0.92,-1,48,50,1379602613,0.0579834,-0.3494568,-1.067932,17.30757,-4.977951,-47.86377,305.1462,302.0078,10,-0.1652401,-0.143367,0.2065676,0.02914661,0.01357272,0.2943796,-0.0365682,-0.232098,0.03189036,0.01112043,-0.05200167,-0.1252896,1
2013-09-19 16:56:53.894,5,0.09999999,51.03953,13.793,102,0.92,-1,48,50,1379602613,-0.04154968,-0.3372955,-0.8847046,16.70218,-6.121475,-48.07397,307.9151,304.7767,10,0.09130781,-0.5222161,-0.2592885,0.009507141,0.02077288,0.3504908,-0.07458122,-0.2766962,-0.2580374,-0.008171295,-0.08210201,-0.02533854,1
2013-09-19 16:56:53.930,6,0.12,51.03953,13.793,102,0.92,-1,48,50,1379602613,-0.04154968,-0.3372955,-0.8847046,16.63492,-6.726868,-48.00391,307.7331,304.5947,10,0.1870674,-0.5551735,-0.2399324,0.005469848,0.01582736,0.3507764,0.08306994,-0.5267943,-0.2633618,0.03549105,-0.1030587,-0.05727303,1
2013-09-19 16:56:53.954,7,0.14,51.03953,13.793,102,0.92,-1,48,50,1379602613,0.08711243,-0.399765,-0.9715881,15.89499,-6.390533,-48.07397,309.1509,306.0125,10,-0.2332447,-0.0313984,0.1001748,-0.001179403,-0.005099732,0.3476757,-0.3141576,-0.09670942,0.1100747,0.1422458,-0.1367035,0.04228204,1
2013-09-19 16:56:53.989,8,0.16,51.03953,13.793,102,0.92,-1,48,50,1379602613,0.0003967285,-0.3674011,-0.9319916,15.89499,-6.390533,-48.07397,309.1509,306.0125,10,-0.164031,0.09355312,0.04715073,-0.001179403,-0.005099732,0.3476757,-0.3141576,-0.09670942,0.1100747,0.1422458,-0.1367035,0.04228204,1
2013-09-19 16:56:54.014,9,0.18,51.03953,13.793,102,0.92,-1,48,50,1379602613,-0.06304932,-0.3887634,-0.8839417,15.76045,-5.583344,-48.35428,310.3817,307.2433,10,-0.3616498,-0.3963806,-0.3543618,5.571824e-05,-0.001539345,0.3367172,-0.212258,0.05063534,-0.1636153,0.0001864218,-0.04569298,0.05723131,1
2013-09-19 16:56:54.047,10,0.2,51.03953,13.793,102,0.92,-1,48,50,1379602613,-0.06304932,-0.3887634,-0.8839417,15.49138,-4.910675,-48.35428,311.896,308.7576,10,-0.502979,-0.9670798,-0.5797683,-0.004243676,-0.003326486,0.33235,-0.3699512,-0.4009755,-0.3584684,-0.05006295,-0.05943111,0.05860003,1
2013-09-19 16:56:54.053,11,0.22,51.03953,13.793,102,0.92,-1,48,50,1379602613,-0.04243469,-0.3162842,-1.022827,15.49138,-4.910675,-48.35428,311.896,308.7576,10,-0.4948832,-0.4670284,-0.4351355,-0.02145534,-0.02583709,0.3179501,-0.6345292,-1.306116,-0.6546465,-0.006909005,-0.0216695,0.04189216,1
2013-09-19 16:56:54.074,12,0.24,51.03953,13.793,102,0.92,-1,48,50,1379602613,0.03495789,-0.3569183,-1.115662,14.75145,-4.439819,-48.56451,313.1853,310.0469,10,-0.07218178,0.0760732,-0.1859155,-0.02932718,-0.03455083,0.310105,-0.5031845,-0.4716233,-0.4392421,0.01313613,0.007352864,0.02291542,1
2013-09-19 16:56:54.109,13,0.26,51.03953,13.793,102,0.92,-1,48,50,1379602613,0.03495789,-0.3569183,-1.115662,14.68419,-3.968964,-49.05505,311.1659,308.0275,10,0.3253869,0.232731,0.02529737,-0.0334058,-0.03432766,0.3070609,-0.080483,0.07147831,-0.1900221,-0.009719095,-0.01402586,-0.07016268,1
2013-09-19 16:56:54.134,14,0.28,51.03953,13.793,102,0.92,-1,48,50,1379602613,-0.1255341,-0.3837585,-0.8765564,14.95325,-3.968964,-48.91492,310.5276,307.3892,10,0.1795351,-0.6935327,-0.4843129,-0.03449083,-0.02711298,0.3257542,0.2528365,-0.2918049,-0.1662092,-0.0998501,-0.06373514,0.07050504,1
2013-09-19 16:56:54.170,15,0.3,51.03953,13.793,102,0.92,-1,48,50,1379602613,-0.1332855,-0.3898315,-0.8921204,13.74248,-3.69989,-49.19522,314.2927,311.1543,10,0.1124544,-0.9333211,-0.6587893,-0.03449083,-0.02711298,0.3257542,0.2528365,-0.2918049,-0.1662092,-0.0998501,-0.06373514,0.07050504,1
2013-09-19 16:56:54.194,16,0.32,51.03953,13.793,102,0.92,-1,48,50,1379602613,-0.020401,-0.3785095,-0.9246368,13.13707,-3.632614,-49.40546,315.4978,312.3594,10,-0.2397343,-0.4704794,-0.230674,-0.06583919,-0.06118608,0.3318291,-0.1122511,-0.6999352,-0.4094867,0.03240629,-0.03985824,0.05074979,1
2013-09-19 16:56:54.228,17,0.34,51.03953,13.793,102,0.92,-1,48,50,1379602613,-0.07725525,-0.4000702,-0.9411469,12.66623,-3.161758,-49.33536,316.2292,313.0908,10,-0.3149127,-0.2757906,-0.09254671,-0.07058918,-0.06607307,0.3311213,-0.2480178,-0.4750702,-0.2347811,0.04203742,-0.05340589,0.01897806,1
2013-09-19 16:56:54.233,18,0.36,51.03953,13.793,102,0.92,-1,48,50,1379602613,-0.07725525,-0.4000702,-0.9411469,12.66623,-3.161758,-49.33536,316.2292,313.0908,10,-0.3493921,-0.1565811,0.03920386,-0.07292848,-0.07005758,0.3269882,-0.3231962,-0.2803814,-0.09665383,0.01517431,-0.07346105,0.03107096,1
2013-09-19 16:56:54.254,19,0.38,51.03953,13.793,102,0.92,-1,48,50,1379602613,-0.1574554,-0.427597,-0.8895569,11.92632,-3.229019,-49.12512,315.8204,312.682,10,-0.4573564,-0.2006902,0.1553331,-0.07209277,-0.07572693,0.3208534,-0.34987,-0.1218059,0.1230943,-0.03042497,-0.1165693,0.0008734372,1
2013-09-19 16:56:54.287,20,0.4,51.03953,13.793,102,0.92,-1,48,50,1379602613,-0.1242676,-0.4116211,-0.9468689,11.52271,-2.556366,-49.12512,316.6263,313.4879,10,-0.618778,-0.1979424,0.05694371,-0.07039706,-0.07864796,0.3149713,-0.46562,-0.2052883,0.1512293,-0.0466208,-0.1252084,0.04266904,1
2013-09-19 16:56:54.293,21,0.42,51.03953,13.793,102,0.92,-1,48,50,1379602613,-0.06694031,-0.4060974,-0.9968872,11.52271,-2.556366,-49.12512,316.6263,313.4879,10,-0.2894752,-0.1080165,-0.06662137,-0.07017433,-0.08339558,0.2974945,-0.6587663,-0.07926963,0.01318382,-0.06542537,-0.1440844,0.07314301,1
2013-09-19 16:56:54.314,22,0.44,51.03953,13.793,102,0.92,-1,48,50,1379602613,-0.07795715,-0.4037628,-0.8861389,11.11911,-2.421844,-49.26526,316.0724,312.934,10,0.06205245,-0.1281753,-0.05172232,-0.07236207,-0.08630024,0.2913827,0.01325942,-0.1506351,-0.05859466,0.01561959,-0.1188205,-0.0426043,1
2013-09-19 16:56:54.349,23,0.46,51.03953,13.793,102,0.92,-1,48,50,1379602613,-0.07795715,-0.4037628,-0.8861389,11.11911,-2.556366,-49.26526,314.7435,311.6051,10,0.06205245,-0.1281753,-0.05172232,-0.07236207,-0.08630024,0.2913827,0.01325942,-0.1506351,-0.05859466,0.01561959,-0.1188205,-0.0426043,1
2013-09-19 16:56:54.374,24,0.48,51.03953,13.793,102,0.92,-1,48,50,1379602613,-0.1130981,-0.4042969,-0.8878021,10.64824,-1.6819,-49.61566,315.9524,312.814,10,-0.1360122,0.1278717,-0.06498885,-0.07482086,-0.08765835,0.2941176,-0.1582431,0.1274286,-0.01615487,-0.0159447,-0.1120973,0.09480211,1
2013-09-19 16:56:54.410,25,0.5,51.03953,13.793,102,0.92,-1,48,50,1379602613,-0.1296082,-0.4045715,-0.8958588,10.64824,-1.6819,-49.61566,315.9524,312.814,10,-0.1081699,0.05308319,-0.1463562,-0.07529345,-0.08710207,0.2971046,-0.1442151,0.1232599,-0.06908637,-0.02991745,-0.111544,0.0647611,1
2013-09-19 16:56:54.434,26,0.52,51.03953,13.793,102,0.92,-1,48,50,1379602613,-0.05636597,-0.3517151,-0.9776001,10.91731,-1.547348,-50.1763,316.8548,313.7164,10,-0.2767815,0.07206434,0.1462027,-0.08220152,-0.08479827,0.2962767,-0.2330609,-0.09044002,-0.01946392,0.05146544,-0.07663018,0.07445348,1
2013-09-19 16:56:54.468,27,0.54,51.03953,13.793,102,0.92,-1,48,50,1379602613,-0.06912231,-0.355835,-0.9788208,10.91731,-1.547348,-50.1763,316.8548,313.7164,10,-0.1651658,0.07335491,0.1764134,-0.08096664,-0.08480232,0.2921417,-0.2850543,0.06744017,0.1420589,0.04346846,-0.0740262,0.02913913,1
2013-09-19 16:56:54.473,28,0.56,51.03953,13.793,102,0.92,-1,48,50,1379602613,-0.06912231,-0.355835,-0.9788208,11.25365,-0.8074188,-50.10623,317.3423,314.2039,10,-0.03979002,0.09981555,0.1776688,-0.07879182,-0.08443176,0.2890328,-0.1734385,0.06873075,0.1722696,0.02446744,-0.06668975,-0.0224946,1
2013-09-19 16:56:54.494,29,0.58,51.03953,13.793,102,0.92,-1,48,50,1379602613,-0.09030151,-0.4031067,-0.9153442,11.05185,-0.3365631,-50.31647,318.117,314.9786,10,0.07781704,0.05377561,0.09231795,-0.07208641,-0.08212577,0.2906567,0.06432606,0.07483401,0.1205681,-0.02004015,-0.1019531,0.02381181,1
2013-09-19 16:56:54.529,30,0.6,51.03953,13.793,102,0.92,-1,48,50,1379602613,-0.09030151,-0.4031067,-0.9153442,11.38817,-0.5383606,-50.1062,317.3566,314.2182,10,0.07781704,0.05377561,0.09231795,-0.07208641,-0.08212577,0.2906567,0.06432606,0.07483401,0.1205681,-0.02004015,-0.1019531,0.02381181,1
2013-09-19 16:56:54.533,31,0.62,51.03953,13.793,102,0.92,-1,48,50,1379602613,-0.06314087,-0.4115601,-0.9137878,11.72452,-0.7401428,-49.61566,316.7194,313.581,10,0.1130523,0.06291026,0.1385334,-0.07208641,-0.08212577,0.2906567,0.06432606,0.07483401,0.1205681,-0.02004015,-0.1019531,0.02381181,1
2013-09-19 16:56:54.554,32,0.64,51.03953,13.793,102,0.92,-1,48,50,1379602613,-0.1453247,-0.4087524,-0.8942413,11.92632,-0.2693024,-49.68573,317.4706,314.3322,10,-0.03955007,0.2123716,0.2772505,-0.06252661,-0.07993446,0.2986628,0.02397317,0.1919263,0.2245023,-0.007639369,-0.1184925,0.06357996,1
2013-09-19 16:56:54.590,33,0.66,51.03953,13.793,102,0.92,-1,48,50,1379602613,-0.1453247,-0.4087524,-0.8942413,11.92632,-0.2693024,-49.68573,317.4706,314.3322,10,-0.1138701,0.2057502,0.2016133,-0.05890939,-0.07825663,0.3040477,-0.04775436,0.2077432,0.2731088,0.002172794,-0.1279835,0.05274436,1
2013-09-19 16:56:54.614,34,0.68,51.03953,13.793,102,0.92,-1,48,50,1379602613,-0.08244324,-0.4958344,-0.98909,12.06084,-0.5383606,-49.40543,317.5085,314.3701,10,-0.4061427,0.3718244,0.2831513,-0.04944397,-0.07088226,0.2993524,-0.430196,0.4110507,0.2629021,-0.01419014,-0.1412558,0.09601155,1
2013-09-19 16:56:54.650,35,0.7,51.03953,13.793,102,0.92,-1,48,50,1379602613,-0.1687164,-0.3870392,-1.028931,12.73351,-0.5383606,-49.40543,316.3898,313.2514,10,-0.1307905,0.1777735,0.03378326,-0.04604355,-0.06648697,0.2929055,-0.4143165,0.3671917,0.2790115,-0.0188349,-0.2070991,-0.03379632,1
2013-09-19 16:56:54.674,36,0.72,51.03953,13.793,102,0.92,-1,48,50,1379602613,-0.09809875,-0.3920746,-1.064163,13.06982,-0.3365631,-49.61569,316.2303,313.0919,10,0.07441378,0.4269841,0.0226422,-0.04307246,-0.05526972,0.2844824,0.01637661,0.2286261,-0.02324679,-0.05877989,-0.1046695,-0.09358422,1
2013-09-19 16:56:54.709,37,0.74,51.03953,13.793,102,0.92,-1,48,50,1379602613,-0.06559753,-0.4062195,-1.028702,13.54068,-0.2692871,-48.70468,315.3113,312.1729,10,0.06770395,0.6583691,0.062347,-0.04307246,-0.05526972,0.2844824,0.01637661,0.2286261,-0.02324679,-0.05877989,-0.1046695,-0.09358422,1
2013-09-19 16:56:54.734,38,0.76,51.03953,13.793,102,0.92,-1,48,50,1379602613,-0.1016235,-0.3345642,-1.169678,15.15506,0.1343079,-48.00391,314.8786,311.7402,10,-0.02184112,0.3447342,-0.06731272,-0.04032399,-0.02530585,0.2867419,-0.01654346,0.5459006,0.0519112,-0.03696349,-0.1125876,-0.09199421,1
2013-09-19 16:56:54.768,39,0.78,51.03953,13.793,102,0.92,-1,48,50,1379602613,-0.1016235,-0.3345642,-1.169678,15.15506,0.1343079,-48.00391,314.8786,311.7402,10,-0.1068482,0.2485211,-0.1763798,-0.04067935,-0.01957721,0.2864797,-0.03001159,0.3401009,-0.07145201,-0.06249017,-0.1053775,-0.1192626,1
2013-09-19 16:56:54.773,40,0.8,51.03953,13.793,102,0.92,-1,48,50,1379602613,-0.06938171,-0.2572784,-1.377823,15.76045,0.3361206,-47.79367,314.8868,311.7484,10,0.1425931,0.2802133,-0.3005188,-0.04280515,-0.01534443,0.2852133,-0.1150186,0.2438878,-0.1805191,-0.08689957,-0.05320204,-0.210189,1
2013-09-19 16:56:54.794,41,0.82,51.03953,13.793,102,0.92,-1,48,50,1379602613,0.1204987,-0.1729736,-1.197723,16.02951,0.8742371,-47.6535,315.5396,312.4012,10,0.3579771,0.3296003,-0.1921548,-0.05078094,-0.006504667,0.2850292,0.1344227,0.2755799,-0.3046581,-0.01425037,0.05595052,-0.45594,1
2013-09-19 16:56:54.830,42,0.84,51.03953,13.793,102,0.92,-1,48,50,1379602613,0.1204987,-0.1729736,-1.197723,16.02951,0.8742371,-47.6535,315.5396,312.4012,10,0.4713414,0.4210942,0.04641996,-0.05431705,-0.00125027,0.2888867,0.3498067,0.324967,-0.196294,0.04256504,0.09016778,-0.436596,1
2013-09-19 16:56:54.853,43,0.86,51.03953,13.793,102,0.92,-1,48,50,1379602613,0.0489502,-0.2463684,-0.8774719,16.29857,1.008774,-48.63458,317.5476,314.4092,10,0.2554126,0.2322498,0.2888848,-0.04536178,0.0188304,0.3114468,0.3112471,0.3403894,0.2655304,0.02177994,0.06667475,0.04121527,1
2013-09-19 16:56:54.890,44,0.88,51.03953,13.793,102,0.92,-1,48,50,1379602613,0.05636597,-0.2445068,-0.9227142,16.02951,0.6051941,-48.91489,319.3878,316.2494,10,0.1852972,0.1396205,0.3018866,-0.04536178,0.0188304,0.3114468,0.3112471,0.3403894,0.2655304,0.02177994,0.06667475,0.04121527,1
2013-09-19 16:56:54.914,45,0.9,51.03954,13.79297,102,0.92,-1,24,30,1379602614,0.09361267,-0.2080994,-1.042755,15.96225,-0.000213623,-49.40543,321.4461,318.3077,10,0.2922668,-0.01388652,0.3171977,-0.02924259,0.02053382,0.3197166,0.2290805,-0.03492684,0.2775269,0.0667813,0.09339605,-0.07246679,1
2013-09-19 16:56:54.951,46,0.92,51.03954,13.79297,102,0.92,-1,24,30,1379602614,0.09361267,-0.2080994,-1.042755,15.96225,-0.000213623,-49.40543,321.4461,318.3077,10,0.2842677,0.07300044,0.3781987,-0.02495467,0.01868875,0.3235713,0.2840769,-0.01851963,0.3130588,0.07195802,0.1078411,-0.09679839,1
2013-09-19 16:56:54.973,47,0.94,51.03954,13.79297,102,0.92,-1,24,30,1379602614,0.02755737,-0.2223053,-0.9281921,16.63492,-0.941925,-48.70465,319.0541,315.9157,10,0.09087824,0.1561313,0.2717711,-0.009930233,0.02033281,0.3298774,0.1693806,0.127509,0.3351184,0.04981084,0.1040327,-0.02010167,1
2013-09-19 16:56:55.007,48,0.96,51.03954,13.79297,102,0.92,-1,24,30,1379602614,0.03884888,-0.2219849,-0.8922424,16.56766,-1.278259,-48.49442,318.4062,315.2678,10,0.04202415,0.2332636,0.2273469,-0.005772532,0.02093094,0.3315259,0.08266518,0.1515113,0.2676263,0.02024933,0.09947301,0.02804231,1
2013-09-19 16:56:55.034,49,0.98,51.03954,13.79297,102,0.92,-1,24,30,1379602614,0.128891,-0.2209625,-0.7418213,16.29858,-1.681854,-48.91489,318.5156,315.3772,10,0.2023246,0.2651363,0.1722261,0.004169714,0.03675672,0.3314672,0.1463512,0.3825136,0.1318743,0.06783676,0.1126011,0.1263084,1
2013-09-19 16:56:55.066,50,1,51.03954,13.79297,102,0.92,-1,24,30,1379602614,0.128891,-0.2209625,-0.7418213,17.03851,-2.152695,-48.28418,316.5069,313.3685,10,0.2286657,0.1957881,0.2586065,0.004169714,0.03675672,0.3314672,0.1463512,0.3825136,0.1318743,0.06783676,0.1126011,0.1263084,1
2013-09-19 16:56:55.074,51,1.02,51.03954,13.79297,102,0.92,-1,24,30,1379602614,0.1183777,-0.2422485,-0.6290283,17.30759,-2.152695,-48.70465,317.1621,314.0237,10,0.1488723,0.2250587,0.3794784,0.009496429,0.0420169,0.3371768,0.2204303,0.1911695,0.2544612,0.08925163,0.1098616,0.2010383,1
2013-09-19 16:56:55.093,52,1.04,51.03954,13.79297,102,0.92,-1,24,30,1379602614,0.09196472,-0.2565002,-0.6488037,17.30759,-2.152695,-48.70465,317.1621,314.0237,10,-0.01406282,0.2356003,0.4500308,0.02063771,0.04483261,0.3409869,0.04642152,0.3032979,0.4535008,0.06710726,0.08121295,0.3152269,1
2013-09-19 16:56:55.126,53,1.06,51.03954,13.79297,102,0.92,-1,24,30,1379602614,0.0697937,-0.2853241,-0.6375427,17.17305,-2.421768,-48.84482,317.5539,314.4155,10,-0.07982399,0.1070231,0.3920554,0.02741708,0.04636519,0.3412288,-0.02229813,0.2309816,0.4458855,0.0482884,0.07814503,0.2925277,1
2013-09-19 16:56:55.133,54,1.08,51.03954,13.79297,102,0.92,-1,24,30,1379602614,0.01237488,-0.2935486,-0.7506256,17.37485,-2.623566,-48.77475,317.3789,314.2405,10,-0.1599335,-0.09438216,0.158073,0.03861812,0.04514428,0.3388705,-0.1635735,0.01650105,0.316314,0.0272312,0.04709796,0.3046271,1
2013-09-19 16:56:55.154,55,1.1,51.03954,13.79297,102,0.92,-1,24,30,1379602614,0.04660034,-0.3123169,-0.8695068,18.2493,-2.421768,-47.72357,315.7663,312.6279,10,-0.083566,-0.1020672,0.005659484,0.04186036,0.0431603,0.3366291,-0.1681687,-0.09900076,0.1539277,-0.02835033,0.03675866,0.1923689,1
2013-09-19 16:56:55.188,56,1.12,51.03954,13.79297,102,0.92,-1,24,30,1379602614,0.05056763,-0.2914429,-0.8405762,17.84569,-2.018158,-48.14404,316.1257,312.9873,10,0.1444994,-0.08044584,-0.0643409,0.0427183,0.04148518,0.3349938,-0.09180123,-0.1066858,0.001514246,-0.03426981,0.02900443,0.1552239,1
2013-09-19 16:56:55.193,57,1.14,51.03954,13.79297,102,0.92,-1,24,30,1379602614,0.2010956,-0.3412323,-1.020706,17.84569,-2.018158,-48.14404,316.1257,312.9873,10,0.03935114,-0.2684048,-0.1115675,0.04061514,0.03945958,0.3350526,0.1362612,-0.08506152,-0.06848733,0.009863456,0.02822067,0.04805852,1
2013-09-19 16:56:55.214,58,1.16,51.03954,13.79297,102,0.92,-1,24,30,1379602614,0.0327301,-0.4104462,-0.7632141,17.64391,-2.219955,-48.35428,316.1052,312.9668,10,0.01536671,-0.06657264,-0.1998527,0.03748777,0.03031404,0.3362668,0.09038136,-0.5625655,-0.1146785,0.1724837,-0.01126702,-0.07714681,1
2013-09-19 16:56:55.247,59,1.18,51.03954,13.79297,102,0.92,-1,24,30,1379602614,0.0327301,-0.4104462,-0.7632141,17.37483,-1.81636,-48.35428,316.9875,313.8491,10,-0.1240032,-0.05589363,-0.01435817,0.03748777,0.03031404,0.3362668,0.09038136,-0.5625655,-0.1146785,0.1724837,-0.01126702,-0.07714681,1
2013-09-19 16:56:55.273,60,1.2,51.03954,13.79297,102,0.92,-1,24,30,1379602614,0.04502869,-0.3874512,-0.9425812,17.71117,-1.614563,-48.14404,316.3126,313.1742,10,0.4157874,0.3616253,-0.06010462,0.03303291,0.03580474,0.3415885,0.3025325,0.3584303,-0.00628332,0.02240821,-0.05841783,-0.04220586,1
2013-09-19 16:56:55.306,61,1.22,51.03954,13.79297,102,0.92,-1,24,30,1379602614,0.06802368,-0.4113617,-0.8609467,17.77843,-2.21994,-48.77478,315.531,312.3926,10,0.3406409,0.1979964,-0.165072,0.03220484,0.04118989,0.3468193,0.4075598,0.3570161,-0.0642534,0.006302255,-0.04754293,-0.002920256,1
2013-09-19 16:56:55.334,62,1.24,51.03954,13.79297,102,0.92,-1,24,30,1379602614,0.1885681,-0.4666595,-1.075424,17.10576,-2.892609,-48.35428,317.9008,314.7625,10,0.9453418,0.03640541,0.01397654,0.0225792,0.04788048,0.3650689,0.6023186,-0.2133558,-0.1977917,0.0007631619,-0.02148055,-0.1997076,1
2013-09-19 16:56:55.366,63,1.26,51.03954,13.79297,102,0.92,-1,24,30,1379602614,0.2885284,-0.8222198,-1.028458,17.10576,-2.892609,-48.35428,317.9008,314.7625,10,0.8982754,0.2367579,0.3081091,0.02086787,0.04796276,0.3767556,0.9371338,0.03180813,0.009823302,0.07101887,-0.03684904,-0.1493312,1
2013-09-19 16:56:55.374,64,1.28,51.03954,13.79297,102,0.92,-1,24,30,1379602614,-0.431366,-0.4012451,-1.134552,17.64389,-3.834335,-48.07397,317.6789,314.5405,10,-0.1208335,-1.017089,1.519179,0.03202203,0.0452655,0.3986478,0.4026119,-0.3543808,0.8401056,0.2468266,-0.4340473,-0.1078149,1
2013-09-19 16:56:55.394,65,1.3,51.03954,13.79297,102,0.92,-1,24,30,1379602614,0.3102722,-0.5159149,-1.045731,17.37483,-4.776062,-48.63461,318.4369,315.2985,10,0.0974874,-0.882562,0.1869795,0.06565306,0.003510399,0.3975197,-0.1019511,-1.268759,0.4326548,-0.4346026,-0.01411248,-0.2125337,1
2013-09-19 16:56:55.427,66,1.32,51.03954,13.79297,102,0.92,-1,24,30,1379602614,0.3102722,-0.5159149,-1.045731,16.97124,-5.045135,-48.77475,317.6106,314.4722,10,-0.4060183,-0.4675446,0.4917442,0.06565306,0.003510399,0.3975197,-0.1019511,-1.268759,0.4326548,-0.4346026,-0.01411248,-0.2125337,1
2013-09-19 16:56:55.433,67,1.34,51.03954,13.79297,102,0.92,-1,24,30,1379602614,-0.3374176,-0.6476898,-1.311127,16.97124,-5.045135,-48.77475,317.6106,314.4722,10,-0.7466092,-0.7951869,0.2507145,0.07461996,-0.0216127,0.3957928,-0.4143077,-0.4721594,0.4875598,0.003933824,-0.2625009,0.01064099,1
2013-09-19 16:56:55.453,68,1.36,51.03954,13.79297,102,0.92,-1,24,30,1379602614,-0.3553772,-0.5085297,-1.380615,16.70218,-5.314178,-49.19519,315.6089,312.4705,10,-1.032041,-0.3529812,-0.3246617,0.08069458,-0.04332644,0.3756396,-0.7596177,-0.567395,0.06292919,-0.1565456,-0.3229823,-0.3671239,1
2013-09-19 16:56:55.489,69,1.38,51.03954,13.79297,102,0.92,-1,24,30,1379602614,-0.3553772,-0.5085297,-1.380615,16.43312,-5.448715,-49.33536,312.9886,309.8502,10,-1.252977,0.08499585,-0.6868364,0.07727008,-0.04795315,0.3627564,-1.040331,-0.357596,-0.328846,-0.3890073,-0.2138272,-0.4345759,1
2013-09-19 16:56:55.514,70,1.4,51.03954,13.79297,102,0.92,-1,24,30,1379602614,0.1009979,-0.329361,-1.542007,15.69321,-3.767075,-48.98499,311.5165,308.3781,10,-0.1200122,0.4919029,-0.5170655,0.04240274,-0.02561202,0.314108,-0.9387013,0.5354341,-0.785269,-0.07754197,-0.05181061,-0.5729975,1
2013-09-19 16:56:55.551,71,1.42,51.03954,13.79297,102,0.92,-1,24,30,1379602614,0.08435059,-0.3042297,-1.162186,15.69321,-3.767075,-48.98499,311.5165,308.3781,10,0.5476437,0.2974956,-0.2248691,0.03331206,-0.01585144,0.3084854,-0.1283014,0.4872881,-0.5212498,0.1161005,-0.02574511,-0.5893326,1
2013-09-19 16:56:55.574,72,1.44,51.03954,13.79297,102,0.92,-1,24,30,1379602614,-0.2463074,-0.2710114,-0.795517,15.15508,-2.959885,-48.70468,314.5341,311.3957,10,0.3444532,-0.3849597,-0.5336496,0.02113739,-0.01799641,0.3456644,0.6562173,-0.4747604,-0.2959865,-0.2147737,0.06407212,0.1416259,1
2013-09-19 16:56:55.609,73,1.46,51.03954,13.79297,102,0.92,-1,24,30,1379602614,-0.1611786,-0.2398529,-0.9280548,15.15508,-2.556305,-48.70468,316.1053,312.9669,10,0.1011855,-0.08596604,-0.721485,0.02113739,-0.01799641,0.3456644,0.6562173,-0.4747604,-0.2959865,-0.2147737,0.06407212,0.1416259,1
2013-09-19 16:56:55.634,74,1.48,51.03954,13.79297,102,0.92,-1,24,30,1379602614,0.08001709,-0.2412567,-0.9376678,14.81876,-2.354507,-49.33539,318.0544,314.916,10,0.2852693,0.53921,-0.608164,-0.01785524,-0.005506417,0.355112,0.056678,0.4851913,-0.7207671,0.002950307,0.114831,-0.04810918,1
2013-09-19 16:56:55.665,75,1.5,51.03954,13.79297,102,0.92,-1,24,30,1379602614,0.08001709,-0.2412567,-0.9376678,14.21336,-2.421768,-49.68579,319.8796,316.7412,10,0.5132543,0.4812516,-0.5232155,-0.02738091,0.005149145,0.3579026,0.2769803,0.5345954,-0.6123482,0.04447831,0.1123344,-0.04221484,1
2013-09-19 16:56:55.673,76,1.52,51.03954,13.79297,102,0.92,-1,24,30,1379602614,0.06425476,-0.2365417,-0.4998474,14.61694,-2.690826,-49.82593,319.6372,316.4988,10,0.6099323,0.2313142,-0.4471357,-0.04311949,0.02307705,0.3720594,0.6424161,0.3300601,-0.4840221,0.05452306,0.1289613,0.1807833,1
2013-09-19 16:56:55.694,77,1.54,51.03954,13.79297,102,0.92,-1,24,30,1379602614,0.07568359,-0.2686005,-0.4444733,14.61694,-2.690826,-49.82593,319.6372,316.4988,10,0.5274175,0.2000836,-0.4285716,-0.05023679,0.02924183,0.3805334,0.6016434,0.2266996,-0.4513198,0.04528728,0.1387955,0.4023129,1
2013-09-19 16:56:55.729,78,1.56,51.03954,13.79297,102,0.92,-1,24,30,1379602614,0.07568359,-0.2686005,-0.4444733,14.41515,-2.892624,-49.75583,322.5339,319.3955,10,0.4292842,0.1834058,-0.4525121,-0.05697298,0.03462082,0.3878508,0.5191286,0.195469,-0.4327557,0.03221184,0.141658,0.4253219,1
2013-09-19 16:56:55.754,79,1.58,51.03954,13.79297,102,0.92,-1,24,30,1379602614,0.08018494,-0.2935791,-0.5388489,14.95326,-3.430756,-50.59677,325.3488,322.2104,10,0.09236482,-0.04176849,-0.2884574,-0.08307242,0.05147495,0.4033409,0.1311484,0.05480008,-0.3421618,0.05780963,0.1103583,0.4370913,1
2013-09-19 16:56:55.789,80,1.6,51.03954,13.79297,102,0.92,-1,24,30,1379602614,0.06874084,-0.3156586,-0.5968933,14.95328,-3.565277,-51.01721,326.2309,323.0925,10,-0.001182177,-0.1996718,-0.260875,-0.08773641,0.0532523,0.4044692,0.08407602,-0.04638299,-0.2926414,0.03125263,0.09995171,0.3791594,1
2013-09-19 16:56:55.814,81,1.62,51.03954,13.79297,102,0.92,-1,24,30,1379602614,-0.006896973,-0.3679352,-0.8085938,14.81874,-3.565277,-51.99829,327.4499,324.3115,10,-0.3571067,-0.1035355,-0.06619367,-0.09731854,0.04711914,0.4002464,-0.2676657,-0.2776066,-0.1202691,0.004442018,0.06351916,0.25704,1
2013-09-19 16:56:55.851,82,1.64,51.03954,13.79297,102,0.92,-1,24,30,1379602614,-0.03591919,-0.4259949,-0.9276428,15.02054,-3.094421,-52.34869,327.5692,324.4308,10,-0.3137507,0.08384936,0.01656033,-0.09837776,0.04515828,0.3954941,-0.3653954,-0.1081499,-0.07037769,-0.01796128,0.03985098,0.2025968,1
2013-09-19 16:56:55.874,83,1.66,51.03954,13.79297,102,0.92,-1,24,30,1379602614,-0.03155518,-0.5889435,-1.070679,14.6842,-2.892624,-52.55893,327.8441,324.7057,10,-0.2322319,0.2002231,0.2389511,-0.0976036,0.04698645,0.3816097,-0.3117726,0.1186401,0.09798366,-0.06988139,-0.07816193,-0.03021804,1
2013-09-19 16:56:55.915,84,1.68,51.03963,13.79291,108,0.784014,-1,24,10,1379602615,-0.03155518,-0.5889435,-1.070679,14.6842,-2.623566,-52.13846,327.1972,324.0588,10,-0.1346822,0.1937618,0.3306115,-0.09348381,0.04524968,0.3823844,-0.2405002,0.1955937,0.2347739,-0.04904739,-0.1117448,-0.06078197,1
2013-09-19 16:56:55.933,85,1.7,51.03963,13.79291,108,0.784014,-1,24,10,1379602615,-0.06887817,-0.5967407,-1.147629,14.54967,-1.816376,-51.71802,327.3165,324.1781,10,0.3950491,-0.07663193,0.2414299,-0.07483903,0.04119176,0.3855115,0.3385028,-0.1090253,0.2767017,-0.1034501,-0.243321,-0.2322609,1
2013-09-19 16:56:55.971,86,1.72,51.03963,13.79291,108,0.784014,-1,24,10,1379602615,-0.09013367,-0.5449829,-1.164688,14.28059,-1.950897,-51.01721,327.2902,324.1518,10,0.3772482,-0.04402498,0.1662097,-0.07135072,0.03864139,0.3908201,0.3867809,-0.08126128,0.2372529,-0.1061839,-0.1901744,-0.2132545,1
2013-09-19 16:56:55.994,87,1.74,51.03963,13.79291,108,0.784014,-1,24,10,1379602615,-0.03945923,-0.594986,-1.071762,14.95325,-1.950897,-50.03613,325.9466,322.8082,10,0.3808842,0.6875355,0.0982773,-0.06565817,0.03927764,0.4062299,0.3865108,0.3353197,0.08770283,-0.1541291,-0.1408466,-0.3477622,1
2013-09-19 16:56:56.029,88,1.76,51.03963,13.79291,108,0.784014,-1,24,10,1379602615,-0.006393433,-0.5950623,-0.977478,15.69316,-2.421753,-49.54556,325.7493,322.6109,10,0.1616062,0.4496796,0.03194169,-0.06458984,0.04694676,0.4116852,0.3726161,0.6829062,0.0941003,-0.08246768,-0.1948317,-0.156324,1
2013-09-19 16:56:56.054,89,1.78,51.03963,13.79291,108,0.784014,-1,24,10,1379602615,0.09498596,-0.3333588,-1.536316,16.09677,-3.228943,-48.42432,323.8005,320.6621,10,-0.4231214,-0.5814498,-0.1983152,-0.06587721,0.05144611,0.4129324,-0.2512482,-0.486643,-0.1454947,-0.05505101,-0.07250368,-0.2312294,1
2013-09-19 16:56:56.089,90,1.8,51.03963,13.79291,108,0.784014,-1,24,10,1379602615,0.3072205,-0.2640533,-1.703156,16.76942,-3.901596,-48.28418,322.2315,319.0931,10,-0.1907747,-0.3535197,-0.0798722,-0.06853627,0.04457193,0.4074904,-0.4313895,-0.5860791,-0.2024922,-0.03057855,0.01653051,-0.3851312,1
2013-09-19 16:56:56.114,91,1.82,51.03963,13.79291,108,0.784014,-1,24,10,1379602615,0.1355286,-0.2753296,-0.8157501,16.29857,-5.045105,-48.91489,319.5806,316.4422,10,0.7233148,-0.2513571,0.8122032,-0.05130918,0.03418314,0.426853,0.8197472,0.0003114874,0.7607168,0.2061185,0.1726905,-0.1135435,1
2013-09-19 16:56:56.149,92,1.84,51.03963,13.79291,108,0.784014,-1,24,10,1379602615,0.1355286,-0.2753296,-0.8157501,15.35684,-5.179642,-49.61566,321.984,318.8456,10,0.5980525,-0.4872293,0.8193353,-0.05130918,0.03418314,0.426853,0.8197472,0.0003114874,0.7607168,0.2061185,0.1726905,-0.1135435,1
2013-09-19 16:56:56.174,93,1.86,51.03963,13.79291,108,0.784014,-1,24,10,1379602615,0.05601501,-0.3064575,-0.912796,14.61691,-5.381439,-51.22745,323.7612,320.6228,10,0.2867745,-0.7273782,0.591434,-0.005900341,-0.01164909,0.4598494,0.3838712,-0.7225668,0.6282176,0.08784657,0.1321219,0.0648055,1
2013-09-19 16:56:56.209,94,1.88,51.03963,13.79291,108,0.784014,-1,24,10,1379602615,0.05601501,-0.3064575,-0.912796,13.80972,-5.650482,-50.80701,322.951,319.8126,10,0.2487448,-0.6717818,0.5762199,0.003432354,-0.0259992,0.4639602,0.2785067,-0.7320074,0.5872571,0.1097044,0.1457659,0.05803237,1
2013-09-19 16:56:56.213,95,1.9,51.03963,13.79291,108,0.784014,-1,24,10,1379602615,0.05432129,-0.3095703,-0.9407959,13.13707,-6.323151,-51.08728,322.1457,319.0073,10,0.2487448,-0.6717818,0.5762199,0.003432354,-0.0259992,0.4639602,0.2785067,-0.7320074,0.5872571,0.1097044,0.1457659,0.05803237,1
2013-09-19 16:56:56.234,96,1.92,51.03963,13.79291,108,0.784014,-1,24,10,1379602615,0.0629425,-0.2885437,-0.8924561,13.13707,-6.323151,-51.08728,322.1457,319.0073,10,0.3456892,-0.5508869,0.5850922,0.03007575,-0.06435055,0.4728187,0.2541015,-0.5673394,0.5498709,0.1115723,0.1458272,-0.0523504,1
2013-09-19 16:56:56.267,97,1.94,51.03963,13.79291,108,0.784014,-1,24,10,1379602615,0.05053711,-0.2706146,-0.802063,12.26262,-6.659485,-51.71802,322.1357,318.9973,10,0.4422579,-0.5582609,0.6489825,0.0391828,-0.07620504,0.4765446,0.3374215,-0.5555159,0.5809155,0.1268227,0.1631029,-0.0296735,1
2013-09-19 16:56:56.273,98,1.96,51.03963,13.79291,108,0.784014,-1,24,10,1379602615,-0.0319519,-0.274231,-0.6820984,11.72449,-7.601212,-52.27866,321.2525,318.1141,10,0.413239,-0.3307044,0.7089809,0.06073362,-0.1013513,0.4871912,0.4948716,-0.5041337,0.7055226,0.1399431,0.1975311,0.0770537,1
2013-09-19 16:56:56.294,99,1.98,51.03963,13.79291,108,0.784014,-1,24,10,1379602615,-0.07928467,-0.2727661,-0.6406097,11.38817,-8.072067,-51.92825,319.4561,316.3177,10,0.2544661,0.1219427,0.6818009,0.08405105,-0.120157,0.4957451,0.3077292,-0.06826314,0.6901887,0.04402112,0.208048,0.2175564,1
2013-09-19 16:56:56.328,100,2,51.03963,13.79291,108,0.784014,-1,24,10,1379602615,-0.109375,-0.301651,-0.6198578,11.38817,-8.072067,-51.92825,319.4561,316.3177,10,0.2544661,0.1219427,0.6818009,0.08405105,-0.120157,0.4957451,0.3077292,-0.06826314,0.6901887,0.04402112,0.208048,0.2175564,1
2013-09-19 16:56:56.333,101,2.02,51.03963,13.79291,108,0.784014,-1,24,10,1379602615,-0.109375,-0.301651,-0.6198578,10.64824,-8.811996,-52.83929,319.1154,315.977,10,0.2412403,0.1387986,0.6465538,0.09528964,-0.1245472,0.4981895,0.2461985,0.1173137,0.6776242,0.02984105,0.2050698,0.2310349,1
2013-09-19 16:56:56.354,102,2.04,51.03963,13.79291,108,0.784014,-1,24,10,1379602615,-0.1585693,-0.3335724,-0.5560608,10.44646,-9.551926,-52.06842,317.5881,314.4497,10,0.2166207,-0.07897391,0.5339957,0.1261166,-0.1360314,0.5050981,0.2656237,-0.01411996,0.5807797,0.006419043,0.1666936,0.3012467,1
2013-09-19 16:56:56.391,103,2.06,51.03963,13.79291,108,0.784014,-1,24,10,1379602615,-0.1910858,-0.3497925,-0.5575867,10.3792,-10.0228,-51.43771,316.4554,313.317,10,0.1377272,-0.08523154,0.4196769,0.1351692,-0.1413331,0.5071259,0.2083532,-0.08360288,0.529819,-6.487477e-05,0.1644236,0.3100386,1
2013-09-19 16:56:56.414,104,2.08,51.03963,13.79291,108,0.784014,-1,24,10,1379602615,-0.09370422,-0.37323,-0.8257599,10.3792,-10.15732,-51.43768,315.5358,312.3974,10,-0.313616,0.1787048,-0.008098939,0.1498711,-0.150019,0.5054976,-0.2036732,0.06916593,0.1163679,-0.05507191,0.1264395,0.2622929,1
2013-09-19 16:56:56.447,105,2.1,51.03963,13.79291,108,0.784014,-1,24,10,1379602615,-0.09370422,-0.37323,-0.8257599,10.11014,-10.5609,-51.57782,315.0153,311.8769,10,-0.3720455,0.2418837,-0.08031827,0.1495559,-0.147947,0.5015236,-0.3218834,0.1740758,-0.0122756,-0.01857243,0.1132236,0.170678,1
2013-09-19 16:56:56.453,106,2.12,51.03963,13.79291,108,0.784014,-1,24,10,1379602615,-0.07092285,-0.3829193,-0.8696747,10.44646,-10.7627,-50.80698,313.7285,310.5901,10,-0.2845388,0.2874198,-0.1085614,0.1451686,-0.139143,0.4918015,-0.3444759,0.2756308,-0.1265508,0.02855264,0.0989847,0.04720435,1
2013-09-19 16:56:56.474,107,2.14,51.03963,13.79291,108,0.784014,-1,24,10,1379602615,-0.07765198,-0.4154205,-0.8484192,10.78279,-10.5609,-50.73691,313.1303,309.9919,10,-0.2193182,0.1503951,-0.1010494,0.1390195,-0.1262153,0.4807544,-0.2476178,0.2342784,-0.09386211,0.03930005,0.06578068,0.02250723,1
2013-09-19 16:56:56.506,108,2.16,51.03963,13.79291,108,0.784014,-1,24,10,1379602615,-0.09324646,-0.4420319,-0.8119659,10.78279,-10.5609,-50.73691,313.1303,309.9919,10,-0.2573149,0.02845295,-0.1020148,0.1390195,-0.1262153,0.4807544,-0.2476178,0.2342784,-0.09386211,0.03930005,0.06578068,0.02250723,1
2013-09-19 16:56:56.513,109,2.18,51.03963,13.79291,108,0.784014,-1,24,10,1379602615,-0.09324646,-0.4420319,-0.8119659,10.91731,-10.5609,-51.15735,312.9022,309.7638,10,-0.4327269,-0.001327852,-0.1448536,0.1370126,-0.1228481,0.4777367,-0.2277644,0.1457637,-0.105229,0.03116757,0.04434988,0.03292608,1
2013-09-19 16:56:56.534,110,2.2,51.03963,13.79291,108,0.784014,-1,24,10,1379602615,-0.1160126,-0.5259094,-1.006058,11.11913,-10.22458,-50.94714,312.9153,309.7769,10,-0.7524221,0.1586623,-0.2965688,0.1300548,-0.12202,0.4654644,-0.6235946,0.04747185,-0.2394771,-0.04230896,-0.04553163,0.008444224,1
2013-09-19 16:56:56.567,111,2.22,51.03963,13.79291,108,0.784014,-1,24,10,1379602615,-0.06820679,-0.5517731,-1.214417,11.18639,-9.753723,-50.17627,312.624,309.4856,10,-0.8255392,0.1222471,-0.2283791,0.1243184,-0.1178115,0.4561398,-0.7608499,0.1540153,-0.3007415,-0.03339409,-0.06874566,-0.04941201,1
2013-09-19 16:56:56.573,112,2.24,51.03963,13.79291,108,0.784014,-1,24,10,1379602615,-0.01811218,-0.6060791,-1.412949,11.18639,-9.753723,-50.17627,312.624,309.4856,10,-0.6382369,-0.005824599,-0.1241875,0.1128561,-0.1085516,0.4338384,-0.8339669,0.1176001,-0.2325518,0.03009512,-0.1314164,-0.3123982,1
2013-09-19 16:56:56.594,113,2.26,51.03963,13.79291,108,0.784014,-1,24,10,1379602615,-0.08700562,-0.5935974,-1.260941,11.58997,-9.215607,-50.03613,311.614,308.4756,10,-0.314808,-0.1314203,0.01893082,0.109166,-0.1064885,0.4241535,-0.6466647,-0.01047156,-0.1283601,0.05414435,-0.1581222,-0.4291939,1
2013-09-19 16:56:56.626,114,2.28,51.03963,13.79291,108,0.784014,-1,24,10,1379602615,-0.08700562,-0.5935974,-1.260941,11.32091,-8.812012,-50.87704,312.0053,308.8669,10,-0.2566283,-0.3310163,0.1329354,0.1080479,-0.1073513,0.4182799,-0.3232358,-0.1360673,0.01475816,0.07979596,-0.1998899,-0.5044199,1
2013-09-19 16:56:56.633,115,2.3,51.03963,13.79291,108,0.784014,-1,24,10,1379602615,-0.4099121,-0.4478455,-1.710114,10.9173,-8.273895,-50.45657,311.6619,308.5235,10,-0.7535071,-0.6838931,-0.3656171,0.1095419,-0.1188829,0.4089314,-0.4936359,-0.6179489,0.007036892,-0.1236896,-0.1653897,-0.2979144,1
2013-09-19 16:56:56.654,116,2.32,51.03963,13.79291,108,0.784014,-1,24,10,1379602615,-0.1122894,-0.3683929,-1.648453,10.9173,-8.273895,-50.45657,311.6619,308.5235,10,-0.450985,0.1664225,-0.7338564,0.09430077,-0.1297523,0.3898398,-0.8109267,-0.4028609,-0.6954131,-0.3951815,-0.113017,-0.6597097,1
2013-09-19 16:56:56.688,117,2.34,51.03963,13.79291,108,0.784014,-1,24,10,1379602615,-0.1122894,-0.3683929,-1.648453,10.64824,-7.601227,-50.03613,311.4168,308.2784,10,0.1497631,0.6341485,-0.4508511,0.09430077,-0.1297523,0.3898398,-0.8109267,-0.4028609,-0.6954131,-0.3951815,-0.113017,-0.6597097,1
2013-09-19 16:56:56.714,118,2.36,51.03963,13.79291,108,0.784014,-1,24,10,1379602615,-0.1930695,-0.3136749,-0.8270721,10.58098,-6.323181,-49.96606,311.6556,308.5172,10,0.6037751,-0.2201033,-0.1248445,0.06947848,-0.1012701,0.3983458,0.6967975,0.1774569,-0.1023159,0.01305771,0.04174859,-0.2744094,1
2013-09-19 16:56:56.749,119,2.38,51.03963,13.79291,108,0.784014,-1,24,10,1379602615,-0.3141785,-0.3051453,-0.7272491,10.58098,-6.323181,-49.96606,311.6556,308.5172,10,0.285937,-0.4808561,-0.3044204,0.06889236,-0.1023933,0.4074989,0.5953476,-0.2247502,-0.129017,-0.09922479,0.08263931,0.08623405,1
2013-09-19 16:56:56.773,120,2.4,51.03965,13.79303,127,0,-1,12,10,1379602616,-0.1182404,-0.3056335,-1.035019,10.1774,-5.516006,-50.24637,316.9458,313.8074,10,-0.3093424,0.07588278,-0.6146871,0.04948121,-0.1114608,0.4119934,-0.293866,-0.2039086,-0.6520972,-0.1731321,0.09643592,0.09635302,1
2013-09-19 16:56:56.814,121,2.42,51.03965,13.79303,127,0,-1,12,10,1379602616,-0.03953552,-0.2890625,-0.8935547,10.24466,-4.910614,-50.1763,317.1693,314.0309,10,-0.1118458,0.1708029,-0.5731639,0.03938211,-0.107526,0.4083931,-0.3177707,0.07123538,-0.6188594,-0.06892639,0.108744,-0.06474361,1
2013-09-19 16:56:56.834,122,2.44,51.03965,13.79303,127,0,-1,12,10,1379602616,0.02838135,-0.2879791,-0.4395447,10.04285,-4.843353,-50.80701,317.911,314.7726,10,0.3845578,0.2525774,-0.4075174,0.01044704,-0.08248394,0.4161007,0.3538851,0.35427,-0.4101028,0.07423107,0.1171029,0.3275931,1
2013-09-19 16:56:56.867,123,2.46,51.03965,13.79303,127,0,-1,12,10,1379602616,0.02838135,-0.2879791,-0.4395447,10.04285,-4.843353,-50.94714,319.3623,316.2239,10,0.3849472,0.08608881,-0.4343685,0.01044704,-0.08248394,0.4161007,0.3538851,0.35427,-0.4101028,0.07423107,0.1171029,0.3275931,1
2013-09-19 16:56:56.874,124,2.48,51.03965,13.79303,127,0,-1,12,10,1379602616,0.06942749,-0.2919617,-0.3663177,10.51372,-4.237946,-50.4566,320.5308,317.3924,10,0.2539811,0.0280857,-0.3570489,-0.007541877,-0.06914787,0.4324594,0.31977,-0.01959967,-0.4072356,0.1167175,0.1228862,0.5169435,1
2013-09-19 16:56:56.894,125,2.5,51.03965,13.79303,127,0,-1,12,10,1379602616,0.1145325,-0.3128052,-0.3344269,11.38817,-4.439743,-49.8259,320.0486,316.9102,10,0.09575422,0.1449577,-0.2737461,-0.01295863,-0.0667252,0.436594,0.2455499,0.02343597,-0.3612199,0.1490596,0.1263466,0.5566006,1
2013-09-19 16:56:56.926,126,2.52,51.03965,13.79303,127,0,-1,12,10,1379602616,0.1121063,-0.3348389,-0.4125671,11.38817,-4.439743,-49.8259,320.0486,316.9102,10,-0.08437747,0.2395066,-0.2135016,-0.0174792,-0.06353698,0.4387987,0.087323,0.140308,-0.277917,0.1720114,0.1120471,0.5690092,1
2013-09-19 16:56:56.933,127,2.54,51.03965,13.79303,127,0,-1,12,10,1379602616,0.1155853,-0.3605804,-0.6719971,11.18637,-4.910614,-49.7558,321.0401,317.9017,10,-0.1314371,0.160831,-0.1677256,-0.02463011,-0.05434251,0.4366176,-0.1652943,0.2275532,-0.2232705,0.1701156,0.0665383,0.2869906,1
2013-09-19 16:56:56.953,128,2.56,51.03965,13.79303,127,0,-1,12,10,1379602616,0.08078003,-0.361618,-0.7856293,11.32091,-5.179672,-49.47546,321.0423,317.9039,10,-0.1809679,0.1484257,-0.1271678,-0.02766745,-0.05054792,0.4347009,-0.1398683,0.1561813,-0.1718965,0.1614126,0.06055873,0.2338405,1
2013-09-19 16:56:56.986,129,2.58,51.03965,13.79303,127,0,-1,12,10,1379602616,0.105835,-0.3549347,-0.9115753,11.52271,-4.977875,-49.26526,321.4244,318.286,10,-0.2485968,0.1493583,-0.1267209,-0.030111,-0.04753854,0.4324437,-0.1893991,0.143776,-0.1313387,0.1456546,0.05907495,0.1863986,1
2013-09-19 16:56:56.993,130,2.6,51.03965,13.79303,127,0,-1,12,10,1379602616,0.06430054,-0.3808899,-1.075409,12.46443,-4.708832,-48.98492,320.4522,317.3138,10,-0.2482386,0.2772614,0.09590789,-0.03367868,-0.04159604,0.425343,-0.2997969,0.2085984,-0.02910978,0.1437138,0.05769853,-0.001465972,1
2013-09-19 16:56:57.014,131,2.62,51.03965,13.79303,127,0,-1,12,10,1379602616,0.09658813,-0.40625,-1.124847,12.46443,-4.708832,-48.98492,320.4522,317.3138,10,0.04108938,0.3350475,0.4597607,-0.03303973,-0.02913762,0.4208417,-0.1137099,0.3431862,0.1858884,0.09089201,0.02763896,-0.163051,1
2013-09-19 16:56:57.046,132,2.64,51.03965,13.79303,127,0,-1,12,10,1379602616,0.09658813,-0.40625,-1.124847,12.26263,-4.372498,-48.91483,321.7657,318.6273,10,0.2040575,0.3786525,0.6556934,-0.03303973,-0.02913762,0.4208417,-0.1137099,0.3431862,0.1858884,0.09089201,0.02763896,-0.163051,1
2013-09-19 16:56:57.053,133,2.66,51.03965,13.79303,127,0,-1,12,10,1379602616,-0.1174774,-0.5265198,-1.133469,12.59897,-4.439758,-48.70459,321.3988,318.2604,10,0.4017235,0.201306,0.8435624,-0.006667337,-0.02590064,0.4258243,0.3099035,0.2771073,0.8078327,0.003336626,-0.06762597,-0.1971814,1
2013-09-19 16:56:57.074,134,2.68,51.03965,13.79303,127,0,-1,12,10,1379602616,-0.2127075,-0.5584869,-1.141052,12.73351,-4.708832,-47.58334,320.5226,317.3842,10,0.531616,0.0793614,0.9048292,0.006198426,-0.02821568,0.4305904,0.3933017,0.1966791,0.8393813,-0.05366319,-0.08280627,-0.1897105,1
2013-09-19 16:56:57.108,135,2.7,51.03965,13.79303,127,0,-1,12,10,1379602616,-0.2127075,-0.5584869,-1.141052,12.73351,-4.708832,-47.58334,320.5226,317.3842,10,0.6791519,-0.006528739,0.9141884,0.01988381,-0.03234198,0.4368146,0.5231943,0.07473456,0.9006482,-0.08817733,-0.1034645,-0.2278386,1
2013-09-19 16:56:57.113,136,2.72,51.03965,13.79303,127,0,-1,12,10,1379602616,-0.3374329,-0.5808411,-1.114517,13.33888,-5.045151,-46.95264,318.8192,315.6808,10,0.6341383,-0.007347395,0.8605755,0.01988381,-0.03234198,0.4368146,0.5231943,0.07473456,0.9006482,-0.08817733,-0.1034645,-0.2278386,1
2013-09-19 16:56:57.133,137,2.74,51.03965,13.79303,127,0,-1,12,10,1379602616,-0.3144073,-0.6563568,-1.123398,12.39716,-6.121399,-47.23294,318.7428,315.6044,10,0.4984617,0.40975,0.7288254,0.06093777,-0.04929551,0.4610628,0.5451584,0.1268918,0.7762722,-0.2933027,-0.1359409,-0.220025,1
2013-09-19 16:56:57.168,138,2.76,51.03965,13.79303,127,0,-1,12,10,1379602616,-0.3407288,-0.7926483,-0.933197,13.40614,-6.99585,-46.60226,315.9596,312.8212,10,0.3383525,0.6468176,0.7354005,0.07259899,-0.05044423,0.467614,0.4900401,0.4051232,0.7246444,-0.3211707,-0.1620963,-0.238906,1
2013-09-19 16:56:57.173,139,2.78,51.03965,13.79303,127,0,-1,12,10,1379602616,-0.3929749,-0.7289276,-1.035873,13.80974,-7.399445,-46.04163,314.8791,311.7407,10,-0.3240172,0.3931529,0.3093019,0.0842616,-0.04771715,0.4726501,0.3299309,0.6421909,0.7312195,-0.2845263,-0.2969651,-0.06693207,1
2013-09-19 16:56:57.194,140,2.8,51.03965,13.79303,127,0,-1,12,10,1379602616,-0.2570496,-0.5819397,-1.395676,13.80974,-7.399445,-46.04163,314.8791,311.7407,10,-0.7320937,0.4657248,-0.125396,0.1020413,-0.03685407,0.4631899,-0.7123805,0.3128895,0.03934016,-0.306621,-0.197483,-0.3080936,1
2013-09-19 16:56:57.255,141,2.82,51.03965,13.79303,127,0,-1,12,10,1379602616,0.1107483,-0.4385071,-1.554855,14.61693,-7.130386,-46.04163,313.4816,310.3432,10,-0.2943232,0.698056,-0.01796196,0.1020413,-0.03685407,0.4631899,-0.7123805,0.3128895,0.03934016,-0.306621,-0.197483,-0.3080936,1
2013-09-19 16:56:57.292,142,2.84,51.03965,13.79303,127,0,-1,12,10,1379602616,0.2720032,-0.3531189,-1.261459,15.22234,-6.390472,-45.69125,314.3256,311.1872,10,0.04901841,1.038879,0.3268412,0.09895224,-0.02166844,0.4460111,-0.3027447,0.6934294,-0.02214289,-0.08438042,-0.07740349,-0.6936026,1
2013-09-19 16:56:57.315,143,2.86,51.03965,13.79303,127,0,-1,12,10,1379602616,0.08599854,-0.3092651,-0.9768219,15.76047,-5.986877,-45.13062,314.9691,311.8307,10,-0.4089305,-0.1269398,0.370344,0.1524085,-0.007591416,0.4595657,-0.1126532,-0.2208487,0.5378464,0.03875561,0.07130549,0.09615531,1
2013-09-19 16:56:57.349,144,2.88,51.03965,13.79303,127,0,-1,12,10,1379602616,0.08599854,-0.3092651,-0.9768219,15.22234,-5.717804,-45.13062,315.5836,312.4452,10,-0.6586687,0.1977179,0.2160963,0.1588972,-0.01282291,0.4552434,-0.4173518,-0.1315664,0.3661631,0.07285696,0.1061391,0.0685056,1
2013-09-19 16:56:57.374,145,2.9,51.03965,13.79303,127,0,-1,12,10,1379602616,0.1553802,-0.2465515,-1.045197,15.08781,-5.986877,-45.27075,313.9704,310.832,10,-0.1412738,0.2607261,0.37363,0.1730606,-0.01008704,0.4242081,-0.357718,0.262362,0.2572417,0.1530679,0.1489192,-0.1793949,1
2013-09-19 16:56:57.408,146,2.92,51.03965,13.79303,127,0,-1,12,10,1379602616,0.1310425,-0.2148285,-0.914566,14.88602,-5.516022,-44.92035,313.7083,310.5699,10,0.01268437,0.1572317,0.4918006,0.1730606,-0.01008704,0.4242081,-0.357718,0.262362,0.2572417,0.1530679,0.1489192,-0.1793949,1
2013-09-19 16:56:57.413,147,2.94,51.03965,13.79303,127,0,-1,12,10,1379602616,0.08363342,-0.2109528,-0.7785034,15.02055,-5.650543,-44.49988,312.4034,309.265,10,0.01268437,0.1572317,0.4918006,0.1779812,-0.008355692,0.4211422,-0.149695,0.2560996,0.3694493,0.1630058,0.1622516,-0.1326058,1
2013-09-19 16:56:57.434,148,2.96,51.03965,13.79303,127,0,-1,12,10,1379602616,0.03240967,-0.2071991,-0.6502075,14.95328,-5.448761,-45.27075,312.9077,309.7693,10,0.3286583,-0.1661767,0.6636808,0.2026324,-0.01600957,0.4248574,0.2541998,-0.1268478,0.6150654,0.09821908,0.2012381,0.1324773,1
2013-09-19 16:56:57.467,149,2.98,51.03965,13.79303,127,0,-1,12,10,1379602616,-0.03340149,-0.2066193,-0.5289612,14.95328,-5.448761,-45.27075,312.9077,309.7693,10,0.3528992,-0.1132019,0.6974624,0.2125561,-0.02237717,0.4288168,0.3201831,-0.1708135,0.6594829,0.07493009,0.2046897,0.1938681,1
2013-09-19 16:56:57.473,150,3,51.03965,13.79303,127,0,-1,12,10,1379602616,-0.06248474,-0.2384796,-0.5168762,15.15508,-5.650543,-45.20068,311.9519,308.8135,10,0.3101496,-0.01123508,0.6553853,0.2340139,-0.03437002,0.437688,0.3295823,-0.06353331,0.6976308,-0.002277521,0.2172273,0.3762379,1
2013-09-19 16:56:57.494,151,3.02,51.03965,13.79303,127,0,-1,12,10,1379602616,-0.05004883,-0.2699432,-0.546402,15.15508,-6.054138,-45.62115,311.3435,308.2051,10,0.2343462,0.02802631,0.6036238,0.2444303,-0.03922724,0.4415956,0.3016745,-0.01587177,0.6511874,-0.01790488,0.2037803,0.3827608,1
2013-09-19 16:56:57.528,152,3.04,51.03965,13.79303,127,0,-1,12,10,1379602616,-0.06045532,-0.292038,-0.6121521,15.49139,-7.063126,-45.69122,309.4208,306.2824,10,0.1637559,-0.11586,0.5372286,0.2540216,-0.04312143,0.4447283,0.2258711,0.02338962,0.5994259,-0.0235699,0.191733,0.3850122,1
2013-09-19 16:56:57.533,153,3.06,51.03965,13.79303,127,0,-1,12,10,1379602616,-0.06045532,-0.292038,-0.6121521,15.49139,-7.063126,-45.69122,309.4208,306.2824,10,0.1637559,-0.11586,0.5372286,0.2631209,-0.04713111,0.4470294,0.174454,-0.02982298,0.5798283,-0.007564772,0.1623455,0.3543319,1
2013-09-19 16:56:57.554,154,3.08,51.03965,13.79303,127,0,-1,12,10,1379602616,-0.1105347,-0.3565216,-0.7779236,15.42412,-6.861328,-46.0416,309.6052,306.4668,10,0.05242139,-0.2502642,0.2132026,0.2848399,-0.06370232,0.4512057,0.07594217,-0.2513753,0.3433364,0.002433003,0.1174169,0.2639719,1
2013-09-19 16:56:57.590,155,3.1,51.03965,13.79303,127,0,-1,12,10,1379602616,-0.1105347,-0.3565216,-0.7779236,15.49139,-7.735779,-45.97153,307.8318,304.6935,10,0.002239452,-0.2109554,0.04584073,0.2848399,-0.06370232,0.4512057,0.07594217,-0.2513753,0.3433364,0.002433003,0.1174169,0.2639719,1
2013-09-19 16:56:57.614,156,3.12,51.03965,13.79303,127,0,-1,12,10,1379602616,-0.05053711,-0.3700714,-0.9223785,16.02953,-7.601257,-45.69119,306.1523,303.0139,10,-0.08552981,-0.03878468,-0.05627233,0.2889209,-0.0754853,0.4493717,-0.1259592,-0.06719983,-0.05949006,-0.006612594,0.08006006,0.05338295,1
2013-09-19 16:56:57.650,157,3.14,51.03965,13.79303,127,0,-1,12,10,1379602616,-0.08992004,-0.4062347,-0.9529572,16.02953,-7.601257,-45.69119,306.1523,303.0139,10,-0.04747085,-0.06593641,-0.047249,0.287804,-0.0757217,0.4479903,-0.09400467,-0.04342124,-0.06047009,0.01764712,0.06308366,-0.02364187,1
2013-09-19 16:56:57.674,158,3.16,51.03965,13.79303,127,0,-1,12,10,1379602616,-0.155899,-0.4343567,-0.8673096,15.42413,-7.533997,-45.90146,306.2289,303.0905,10,-0.2609394,-0.01257678,-0.3806832,0.2821856,-0.07578292,0.440397,-0.08266581,-0.05826664,-0.2304695,-0.04905215,0.01185461,-0.038947,1
2013-09-19 16:56:57.711,159,3.18,51.03965,13.79303,127,0,-1,12,10,1379602616,-0.09832764,-0.4481354,-1.055252,15.42413,-7.533997,-45.90146,306.2289,303.0905,10,-0.5030669,-0.05225202,-0.5244065,0.2813644,-0.08436349,0.4411445,-0.2694169,-0.01725136,-0.3848647,-0.09183341,-0.008389084,0.06631552,1
2013-09-19 16:56:57.734,160,3.2,51.03965,13.79303,127,0,-1,12,10,1379602616,-0.07983398,-0.4670715,-1.16481,14.81874,-6.390472,-45.69122,307.8348,304.6964,10,-0.721746,0.07364333,-0.4188918,0.2442991,-0.07457723,0.4079815,-0.7037951,-0.003660662,-0.4839464,0.05311871,-0.1041277,-0.3165157,1
2013-09-19 16:56:57.776,161,3.22,51.03962,13.79298,124,0.1552083,-1,12,5,1379602617,-0.07983398,-0.4670715,-1.16481,14.54967,-5.583298,-45.69125,308.3797,305.2413,10,-0.9015314,-0.02658154,-0.5157166,0.2442991,-0.07457723,0.4079815,-0.7037951,-0.003660662,-0.4839464,0.05311871,-0.1041277,-0.3165157,1
2013-09-19 16:56:57.794,162,3.24,51.03962,13.79298,124,0.1552083,-1,12,5,1379602617,0.1752014,-0.3412933,-1.812607,14.54967,-4.238007,-45.55112,309.6864,306.548,10,-0.9607646,-0.07843063,-1.037585,0.2023329,-0.0650718,0.3579116,-1.198971,-0.3311484,-1.038148,-0.1626055,-0.03820038,-0.671553,1
2013-09-19 16:56:57.829,163,3.26,51.03962,13.79298,124,0.1552083,-1,12,5,1379602617,0.1752014,-0.3412933,-1.812607,14.41515,-1.950958,-45.97159,311.7346,308.5962,10,-0.3947388,0.1970625,-0.7020096,0.1856646,-0.06189871,0.3440422,-0.9692419,-0.08310509,-1.041766,-0.05272774,-0.02267495,-0.8092443,1
2013-09-19 16:56:57.854,164,3.28,51.03962,13.79298,124,0.1552083,-1,12,5,1379602617,-0.06077576,-0.2991791,-1.09758,15.55865,1.210526,-45.76135,314.0547,310.9163,10,0.7990346,-0.3527615,0.3283273,0.1694793,-0.05019364,0.3450275,0.6806613,-0.01131795,0.2039353,0.2148182,0.01710136,-0.5236048,1
2013-09-19 16:56:57.888,165,3.3,51.03962,13.79298,124,0.1552083,-1,12,5,1379602617,-0.2848511,-0.2995453,-0.8878632,15.96227,1.748642,-45.76135,314.8191,311.6807,10,0.3028778,-0.3606913,-0.01034239,0.1744937,-0.05543519,0.3555213,0.7905574,-0.3574359,0.3241459,0.1217204,0.03429737,-0.3306528,1
2013-09-19 16:56:57.914,166,3.32,51.03962,13.79298,124,0.1552083,-1,12,5,1379602617,-0.07710266,-0.3179779,-1.068893,16.63492,2.421295,-45.34088,314.9047,311.7663,10,0.2393423,-0.04506361,-0.5004641,0.1717186,-0.07069664,0.3726876,0.03011289,-0.06978299,-0.4645271,-0.1556622,0.03044063,-0.09250453,1
2013-09-19 16:56:57.951,167,3.34,51.03962,13.79298,124,0.1552083,-1,12,5,1379602617,-0.02311707,-0.3105774,-0.9124298,16.90398,2.286774,-45.48105,314.5558,311.4174,10,0.2393423,-0.04506361,-0.5004641,0.1717186,-0.07069664,0.3726876,0.03011289,-0.06978299,-0.4645271,-0.1556622,0.03044063,-0.09250453,1
2013-09-19 16:56:57.974,168,3.36,51.03962,13.79298,124,0.1552083,-1,12,5,1379602617,-0.02809143,-0.2902222,-0.5372009,16.90398,2.0177,-45.90149,314.4468,311.3084,10,0.6682097,0.217861,-0.5007334,0.1456637,-0.0576987,0.3984535,0.6593596,0.1926515,-0.4613489,0.02887247,0.09174409,0.1301656,1
2013-09-19 16:56:58.008,169,3.38,51.03962,13.79298,124,0.1552083,-1,12,5,1379602617,-0.02809143,-0.2902222,-0.5372009,16.50038,1.883163,-45.90149,315.1292,311.9908,10,0.6429737,0.2053915,-0.5649257,0.1388773,-0.05211947,0.4080236,0.6597298,0.2131866,-0.5049145,0.0128918,0.1139895,0.3078805,1
2013-09-19 16:56:58.013,170,3.4,51.03962,13.79298,124,0.1552083,-1,12,5,1379602617,0.01919556,-0.2810211,-0.3934326,15.69319,2.0177,-46.32196,318.1599,315.0215,10,0.5794692,0.1878791,-0.6114109,0.1311111,-0.04612485,0.4173319,0.6344937,0.2007172,-0.5691068,0.01405974,0.1151006,0.3760004,1
2013-09-19 16:56:58.034,171,3.42,51.03962,13.79298,124,0.1552083,-1,12,5,1379602617,0.05961609,-0.3113098,-0.4783783,15.15508,1.21051,-47.1629,319.6967,316.5583,10,0.3392707,0.1663935,-0.5596537,0.113548,-0.03365036,0.4329887,0.4441153,0.194324,-0.5905119,0.04973475,0.1385645,0.5137693,1
2013-09-19 16:56:58.068,172,3.44,51.03962,13.79298,124,0.1552083,-1,12,5,1379602617,0.05961609,-0.3113098,-0.4783783,14.81876,0.7396545,-47.51331,321.8193,318.6809,10,0.1721422,0.03447622,-0.5559705,0.1049957,-0.02755463,0.4382434,0.3307909,0.1617192,-0.5638347,0.09355104,0.1233851,0.5099064,1
2013-09-19 16:56:58.073,173,3.46,51.03962,13.79298,124,0.1552083,-1,12,5,1379602617,0.06541443,-0.3205261,-0.5708771,14.81876,0.7396545,-47.51331,321.8193,318.6809,10,0.1721422,0.03447622,-0.5559705,0.09671703,-0.02263912,0.4421576,0.2446568,0.06188985,-0.5461439,0.08933835,0.1208685,0.4755746,1
2013-09-19 16:56:58.094,174,3.48,51.03962,13.79298,124,0.1552083,-1,12,5,1379602617,0.03742981,-0.340271,-0.7151489,14.61694,0.4033356,-48.28418,322.9898,319.8514,10,-0.08962309,0.1745361,-0.5838009,0.07077117,-0.009247687,0.4471513,-0.01832654,0.1001486,-0.564982,0.07913914,0.1137341,0.2893698,1
2013-09-19 16:56:58.128,175,3.5,51.03962,13.79298,124,0.1552083,-1,12,5,1379602617,0.03393555,-0.353775,-0.8570557,14.54968,0.06700134,-48.63455,323.6247,320.4863,10,-0.1753521,0.2693028,-0.6311473,0.07077117,-0.009247687,0.4471513,-0.01832654,0.1001486,-0.564982,0.07913914,0.1137341,0.2893698,1
2013-09-19 16:56:58.154,176,3.52,51.03962,13.79298,124,0.1552083,-1,12,5,1379602617,0.1045074,-0.3859253,-1.016678,14.75148,0.8069305,-48.98495,325.1933,322.0549,10,0.05457456,0.4566701,-0.2372789,0.03526486,0.0210816,0.4393323,-0.1093008,0.4050835,-0.4590188,0.07302386,0.06983604,-0.08710863,1
2013-09-19 16:56:58.189,177,3.54,51.03962,13.79298,124,0.1552083,-1,12,5,1379602617,0.05696106,-0.4504547,-0.982605,15.08781,1.143265,-48.91489,328.024,324.8856,10,0.1657064,0.4335754,-0.0125893,0.0303809,0.02940856,0.4392536,0.04609531,0.4519966,-0.2414601,0.08221273,0.06103671,-0.1119999,1
2013-09-19 16:56:58.214,178,3.56,51.03962,13.79298,124,0.1552083,-1,12,5,1379602617,-0.1472321,-0.5785828,-1.012253,16.09679,1.61412,-48.70462,329.5142,326.3758,10,0.3474948,0.1126989,0.453531,0.03500546,0.04315796,0.4484405,0.290475,0.2233896,0.3660902,-0.04402083,-0.04136905,-0.06898355,1
2013-09-19 16:56:58.252,179,3.58,51.03962,13.79298,124,0.1552083,-1,12,5,1379602617,-0.1472321,-0.5785828,-1.012253,16.09679,1.61412,-48.70462,329.5142,326.3758,10,0.3320552,0.04458132,0.3994089,0.04148372,0.04232257,0.4532119,0.339017,0.1080291,0.4493481,-0.105223,-0.09429487,-0.1202991,1
2013-09-19 16:56:58.274,180,3.6,51.03962,13.79298,124,0.1552083,-1,12,5,1379602617,-0.09048462,-0.7342987,-1.029724,16.63492,0.9414673,-48.98495,328.8,325.6616,10,0.3020855,0.3720574,0.2801928,0.06212892,0.03627276,0.4679125,0.2421038,0.1637319,0.2813754,-0.213809,-0.1720533,-0.2742741,1
2013-09-19 16:56:58.309,181,3.62,51.03962,13.79298,124,0.1552083,-1,12,5,1379602617,-0.09048462,-0.7342987,-1.029724,16.43312,0.8741913,-49.19519,328.9082,325.7698,10,0.3142418,0.4204844,0.2909285,0.06212892,0.03627276,0.4679125,0.2421038,0.1637319,0.2813754,-0.213809,-0.1720533,-0.2742741,1
2013-09-19 16:56:58.334,182,3.64,51.03962,13.79298,124,0.1552083,-1,12,5,1379602617,-0.1492767,-0.5787201,-1.255493,16.76945,1.210526,-49.12509,329.0968,325.9584,10,-0.5015113,-0.03057735,-0.5631366,0.07292134,0.04447901,0.4779048,-0.2047428,-0.07928499,-0.1858325,-0.2175221,-0.2516128,-0.04994471,1
2013-09-19 16:56:58.366,183,3.66,51.03962,13.79298,124,0.1552083,-1,12,5,1379602617,0.2180786,-0.4583282,-1.49855,16.29858,1.277786,-49.19516,330.084,326.9456,10,-0.4939192,0.3842001,-0.7669108,0.06624645,0.04646876,0.4717602,-0.509989,-0.03524694,-0.5673194,-0.1906548,-0.1242652,-0.365685,1
2013-09-19 16:56:58.373,184,3.68,51.03962,13.79298,124,0.1552083,-1,12,5,1379602617,0.4875793,-0.3686829,-1.270554,16.70218,1.412323,-49.3353,329.8566,326.7182,10,0.1995794,1.090285,-0.1546191,0.04525262,0.06874651,0.4591859,-0.1638992,0.8721209,-0.5877237,0.1565018,-0.01510977,-0.6042542,1
2013-09-19 16:56:58.394,185,3.7,51.03962,13.79298,124,0.1552083,-1,12,5,1379602617,0.4609985,-0.3400574,-0.9536743,16.70218,1.412323,-49.3353,329.8566,326.7182,10,0.4531731,0.8897802,0.2440454,0.04044534,0.08537489,0.4599275,0.1911018,1.085615,-0.1588019,0.3235226,0.05260199,-0.5174116,1
2013-09-19 16:56:58.427,186,3.72,51.03962,13.79298,124,0.1552083,-1,12,5,1379602617,0.3194427,-0.3532867,-0.8088074,16.90398,1.479584,-49.40536,330.4908,327.3524,10,0.459284,0.3024099,0.4452936,0.04178135,0.09843544,0.4652799,0.4446955,0.8851107,0.2398627,0.4051821,0.1004522,-0.2286723,1
2013-09-19 16:56:58.433,187,3.74,51.03962,13.79298,124,0.1552083,-1,12,5,1379602617,0.2359924,-0.3368835,-0.8260193,17.64389,1.546844,-49.1951,330.9612,327.8228,10,0.1500915,-0.749238,0.4789692,0.05383876,0.0978912,0.4777119,0.293517,-0.3704107,0.4985318,0.2727342,0.1149456,0.08347414,1
2013-09-19 16:56:58.453,188,3.76,51.03962,13.79298,124,0.1552083,-1,12,5,1379602617,0.2132568,-0.3075104,-1.004196,17.37483,0.8741913,-49.33527,332.0918,328.9534,10,-0.3703485,-0.6825096,0.2361928,0.0673724,0.07144,0.4815472,-0.07001905,-0.7995247,0.3447274,0.1727305,0.1262674,0.05799943,1
2013-09-19 16:56:58.487,189,3.78,51.03962,13.79298,124,0.1552083,-1,12,5,1379602617,0.2132568,-0.3075104,-1.004196,17.37483,0.8741913,-49.89587,331.5579,328.4195,10,-0.5505111,-0.5167912,0.1548117,0.07175952,0.05932052,0.4778623,-0.3789537,-0.6871851,0.2320211,0.1650984,0.1480076,-0.006678808,1
2013-09-19 16:56:58.493,190,3.8,51.03962,13.79298,124,0.1552083,-1,12,5,1379602617,0.2160797,-0.2887421,-1.213638,17.37483,0.8741913,-49.89587,331.5579,328.4195,10,-0.5505111,-0.5167912,0.1548117,0.07175952,0.05932052,0.4778623,-0.3789537,-0.6871851,0.2320211,0.1650984,0.1480076,-0.006678808,1
2013-09-19 16:56:58.514,191,3.82,51.03962,13.79298,124,0.1552083,-1,12,5,1379602617,0.1549225,-0.2146454,-0.9536438,17.2403,1.14325,-49.89587,329.7594,326.621,10,-0.2114965,0.03911385,0.2738625,0.0799495,0.03894478,0.4571083,-0.3679209,-0.1438043,0.1808916,0.1966451,0.1753029,-0.3524781,1
2013-09-19 16:56:58.547,192,3.84,51.03962,13.79298,124,0.1552083,-1,12,5,1379602617,0.1549225,-0.2146454,-0.9536438,17.30757,1.614105,-50.38644,329.0864,325.948,10,-0.1963687,0.1956726,0.3540553,0.08383026,0.03689881,0.4536397,-0.2201017,0.03443838,0.2696908,0.1994457,0.1959914,-0.3162314,1
2013-09-19 16:56:58.553,193,3.86,51.03962,13.79298,124,0.1552083,-1,12,5,1379602617,0.1498566,-0.2212219,-0.8658905,16.90398,1.614105,-51.36755,329.3242,326.1859,10,0.008707738,0.2812005,0.5116007,0.09480134,0.03770631,0.4489395,-0.1280811,0.2912763,0.4033095,0.1145062,0.2175034,-0.006196118,1
2013-09-19 16:56:58.574,194,3.88,51.03962,13.79298,124,0.1552083,-1,12,5,1379602617,0.1388702,-0.2268372,-0.7695618,16.90398,1.614105,-51.36755,329.3242,326.1859,10,0.1982582,0.2357723,0.6310586,0.1020386,0.03859898,0.4485536,0.0001027002,0.2765251,0.507429,0.1150846,0.2124408,0.03451362,1
2013-09-19 16:56:58.608,195,3.9,51.03962,13.79298,124,0.1552083,-1,12,5,1379602617,0.03831482,-0.2523651,-0.6460266,17.30757,2.421295,-51.78802,329.389,326.2506,10,0.3495937,0.2492863,0.7558041,0.1110478,0.03808687,0.4505315,0.1896532,0.2310969,0.626887,0.1188896,0.2125284,0.08201229,1
2013-09-19 16:56:58.613,196,3.92,51.03962,13.79298,124,0.1552083,-1,12,5,1379602617,-0.04949951,-0.296524,-0.5540161,18.11476,2.421295,-52.62897,328.7279,325.5895,10,0.3328624,0.5326921,0.6731907,0.121875,0.03658138,0.4549184,0.3409887,0.2446109,0.7516324,0.1060166,0.2125518,0.1281341,1
2013-09-19 16:56:58.634,197,3.94,51.03962,13.79298,124,0.1552083,-1,12,5,1379602617,-0.0222168,-0.3383636,-0.5359039,18.78741,1.61412,-53.18958,327.6086,324.4702,10,0.1739225,0.4433082,0.4437527,0.1531882,0.0416135,0.4699636,0.2354053,0.5784113,0.5627297,-0.08659077,0.1563298,0.3367968,1
2013-09-19 16:56:58.668,198,3.96,51.03962,13.79298,124,0.1552083,-1,12,5,1379602617,-0.0222168,-0.3383636,-0.5359039,18.85468,0.8742065,-53.11951,327.1638,324.0254,10,0.1734469,0.189616,0.3847746,0.1604683,0.04521361,0.4728652,0.1653176,0.4386328,0.4395811,-0.0915843,0.1324257,0.3653399,1
2013-09-19 16:56:58.694,199,3.98,51.03962,13.79298,124,0.1552083,-1,12,5,1379602617,-0.04826355,-0.3874512,-0.6433411,19.05647,-0.0002593994,-53.32977,326.8611,323.7227,10,0.3528627,-0.4690546,0.323981,0.1782741,0.03567419,0.4824306,0.316443,-0.4190355,0.4000792,0.01312752,0.1025446,0.2630223,1
2013-09-19 16:56:58.727,200,4,51.03962,13.79298,124,0.1552083,-1,12,5,1379602617,-0.04826355,-0.3874512,-0.6433411,19.12373,-1.27829,-53.39984,325.584,322.4456,10,0.2125309,-0.3227802,0.190036,0.1835962,0.02657921,0.4874087,0.3442579,-0.4737299,0.3198094,-0.04827682,0.086151,0.2441993,1
2013-09-19 16:56:58.733,201,4.02,51.03962,13.79298,124,0.1552083,-1,12,5,1379602617,0.0214386,-0.4415131,-0.8511505,19.32553,-1.749161,-53.18961,323.9305,320.7921,10,0.1147146,-0.1317639,-0.02817917,0.188726,0.01564626,0.4931101,0.1274322,-0.1881591,0.06353454,-0.05954279,0.08176619,0.1843917,1
2013-09-19 16:56:58.753,202,4.04,51.03962,13.79298,124,0.1552083,-1,12,5,1379602617,0.0214386,-0.4415131,-0.8511505,19.32553,-1.749161,-53.18961,323.9305,320.7921,10,0.1275913,-0.1583039,-0.090662,0.1886555,0.0136839,0.4945631,0.1061099,-0.1364391,-0.0323507,-0.0554246,0.07001458,0.1249668,1
2013-09-19 16:56:58.787,203,4.06,51.03962,13.79298,124,0.1552083,-1,12,5,1379602617,0.03436279,-0.4493561,-0.8846283,18.85466,-1.950958,-53.39987,324.154,321.0156,10,0.1141202,-0.1949916,-0.09302635,0.1873794,0.01219626,0.4960913,0.1189865,-0.1629791,-0.09483351,0.01071287,0.03447863,0.02823386,1
2013-09-19 16:56:58.793,204,4.08,51.03962,13.79298,124,0.1552083,-1,12,5,1379602617,-0.04400635,-0.486084,-0.9207916,18.65288,-2.556366,-53.75024,323.9382,320.7998,10,0.08160751,-0.4382232,-0.1451761,0.1829818,0.01047775,0.4956229,0.08696779,-0.3193896,-0.07502667,0.02514597,0.0262236,-0.005003933,1
2013-09-19 16:56:58.814,205,4.1,51.03962,13.79298,124,0.1552083,-1,12,5,1379602617,-0.06790161,-0.523941,-0.9433136,18.38382,-1.749176,-53.61011,324.8736,321.7352,10,-0.2398267,-0.4808889,-0.4949844,0.1810695,-0.007343343,0.4942232,-0.05702518,-0.5056037,-0.3170348,-0.06729642,-0.03383079,-0.03808227,1
2013-09-19 16:56:58.853,206,4.12,51.03962,13.79298,124,0.1552083,-1,12,5,1379602617,0.07252502,-0.5632629,-1.164215,18.38382,-1.749176,-53.61011,324.8736,321.7352,10,-0.3878636,-0.3906445,-0.586459,0.1810695,-0.007343343,0.4942232,-0.05702518,-0.5056037,-0.3170348,-0.06729642,-0.03383079,-0.03808227,1
2013-09-19 16:56:58.875,207,4.14,51.03962,13.79298,124,0.1552083,-1,12,5,1379602617,0.01765442,-0.538208,-1.107529,17.17302,-1.614639,-54.17072,325.4727,322.3343,10,-0.4552314,-0.2228504,-0.3563538,0.1485021,-0.01133649,0.4758892,-0.3944037,-0.105884,-0.4400763,0.1509458,-0.1001596,-0.2672841,1
2013-09-19 16:56:58.921,208,4.16,51.03962,13.79298,124,0.1552083,-1,12,5,1379602617,-0.07939148,-0.5148468,-1.282349,17.17302,-0.6729126,-54.03055,325.8268,322.6884,10,-0.6684327,-0.4797038,-0.4128608,0.1425482,-0.01109266,0.4699039,-0.4638568,-0.2275489,-0.3605151,0.09503419,-0.086445,-0.2261951,1
2013-09-19 16:56:58.934,209,4.18,51.0396,13.79292,108,0.1598753,-1,6,5,1379602618,0.184082,-0.3838959,-1.47348,17.10576,0.7396698,-54.38095,326.8586,323.7202,10,0.003113502,0.001917476,-0.07361244,0.1181048,-0.02142205,0.4362462,-0.9997854,-0.4622061,-0.6283766,-0.03797404,-0.05327458,-0.5226358,1
2013-09-19 16:56:58.976,210,4.2,51.0396,13.79292,108,0.1598753,-1,6,5,1379602618,0.184082,-0.3838959,-1.47348,17.0385,1.479599,-54.73132,327.0244,323.886,10,0.5148498,0.1029807,0.3009375,0.1097072,-0.0222662,0.4250059,-0.6781863,-0.2356915,-0.4534,0.04611677,-0.04530022,-0.6775074,1
2013-09-19 16:56:58.993,211,4.22,51.0396,13.79292,108,0.1598753,-1,6,5,1379602618,-0.04255676,-0.3857269,-0.712738,16.76944,2.152252,-55.15179,326.4717,323.3333,10,0.4179456,-0.4797362,0.4720384,0.1243541,-0.02884165,0.4442879,0.624898,-0.1945166,0.5302655,0.04047282,0.0443933,0.07418755,1
2013-09-19 16:56:59.027,212,4.24,51.0396,13.79292,108,0.1598753,-1,6,5,1379602618,-0.1806641,-0.3746948,-0.6538086,16.8367,1.143265,-55.64233,326.3072,323.1688,10,0.1107505,-0.6379235,0.3294426,0.1322421,-0.03768956,0.4508403,0.4093204,-0.4844346,0.4678772,-0.008641121,0.04999506,0.1867041,1
2013-09-19 16:56:59.033,213,4.26,51.0396,13.79292,108,0.1598753,-1,6,5,1379602618,-0.2266388,-0.390976,-0.8409271,16.8367,1.143265,-55.64233,326.3072,323.1688,10,-0.3071663,-0.4197813,-0.1194382,0.1406407,-0.05833717,0.4519515,-0.1846672,-0.5974954,0.08040301,-0.1793919,0.04815686,0.1709086,1
2013-09-19 16:56:59.054,214,4.28,51.0396,13.79292,108,0.1598753,-1,6,5,1379602618,-0.06655884,-0.3560333,-1.030853,16.70216,0.4706116,-56.06281,325.5764,322.438,10,-0.2904912,-0.2473027,-0.214352,0.139361,-0.06456712,0.4481448,-0.3157914,-0.4244797,-0.1235994,-0.1684879,0.04231833,0.05844741,1
2013-09-19 16:56:59.087,215,4.3,51.0396,13.79292,108,0.1598753,-1,6,5,1379602618,-0.03561401,-0.3197632,-0.9435425,15.96225,-0.5383759,-56.97385,324.3097,321.1713,10,-0.1186316,-0.186605,-0.1898285,0.1355674,-0.06615221,0.4427511,-0.2991216,-0.2519968,-0.2185147,-0.1315694,0.05435773,-0.01205044,1
2013-09-19 16:56:59.093,216,4.32,51.0396,13.79292,108,0.1598753,-1,6,5,1379602618,-0.08184814,-0.3278656,-0.8450317,15.96225,-0.5383759,-56.97385,324.3097,321.1713,10,0.01603702,-0.118092,-0.1319631,0.1299752,-0.06908087,0.439876,-0.01971578,-0.1726862,-0.1228773,0.02684096,0.1060641,-0.04089607,1
2013-09-19 16:56:59.114,217,4.34,51.0396,13.79292,108,0.1598753,-1,6,5,1379602618,-0.06341553,-0.3261719,-0.7481384,15.49138,-1.009247,-56.90375,323.888,320.7496,10,0.01068487,0.1372889,-0.2468897,0.1269708,-0.06742168,0.4335713,0.007378716,-0.1227767,-0.1361282,-0.009373976,0.09613974,0.01524218,1
2013-09-19 16:56:59.148,218,4.36,51.0396,13.79292,108,0.1598753,-1,6,5,1379602618,0.0002441406,-0.3239441,-0.679306,15.08778,-0.8747101,-57.88483,324.1827,321.0443,10,0.01068487,0.1372889,-0.2468897,0.124176,-0.06698478,0.433884,0.009156925,-0.008516982,-0.2091614,-0.02111563,0.09253244,0.06027321,1
2013-09-19 16:56:59.153,219,4.38,51.0396,13.79292,108,0.1598753,-1,6,5,1379602618,0.0002441406,-0.3239441,-0.679306,14.75145,-0.5383759,-58.65567,325.0848,321.9464,10,0.008394284,0.2558496,-0.2777413,0.1205488,-0.06428047,0.434179,0.002026618,0.1326042,-0.2510548,-0.005139427,0.09449389,0.1572036,1
2013-09-19 16:56:59.174,220,4.4,51.0396,13.79292,108,0.1598753,-1,6,5,1379602618,0.04525757,-0.346344,-0.5605774,14.48239,-0.8074493,-59.77695,326.1424,323.004,10,0.2022783,0.1884828,-0.09051445,0.1097204,-0.04973519,0.4364857,0.1510766,0.2208824,-0.1533002,0.1145116,0.0949069,0.2262588,1
2013-09-19 16:56:59.208,221,4.42,51.0396,13.79292,108,0.1598753,-1,6,5,1379602618,0.04525757,-0.346344,-0.5605774,14.48239,-1.345566,-60.19739,326.5026,323.3642,10,0.1566027,0.1691728,-0.06798305,0.1082425,-0.04639457,0.4392056,0.1936201,0.1837982,-0.09467952,0.1005852,0.08675011,0.3003561,1
2013-09-19 16:56:59.234,222,4.44,51.0396,13.79292,108,0.1598753,-1,6,5,1379602618,0.003295898,-0.3826599,-0.6220551,14.21333,-1.883698,-61.03833,327.636,324.4976,10,-0.2318721,0.4284358,-0.2379084,0.103867,-0.0361183,0.4421861,-0.1095373,0.2886466,-0.1650301,0.04832332,0.06635936,0.3411561,1
2013-09-19 16:56:59.267,223,4.46,51.0396,13.79292,108,0.1598753,-1,6,5,1379602618,0.08711243,-0.3950348,-0.796936,14.88599,-2.421829,-60.89819,326.8974,323.759,10,-0.3595166,0.5833029,-0.2788082,0.1004472,-0.0295213,0.4395621,-0.2405302,0.4237512,-0.2420735,0.03000697,0.04288327,0.2824888,1
2013-09-19 16:56:59.273,224,4.48,51.0396,13.79292,108,0.1598753,-1,6,5,1379602618,0.1161041,-0.4285736,-0.9100952,14.54967,-3.027206,-61.24857,327.7726,324.6342,10,-0.1569478,0.5243407,-0.1011876,0.09223749,-0.01008693,0.4301804,-0.3379488,0.6326187,-0.2310232,0.09628019,0.02199998,0.1119083,1
2013-09-19 16:56:59.294,225,4.5,51.0396,13.79292,108,0.1598753,-1,6,5,1379602618,0.07922363,-0.4586029,-0.896225,14.54967,-3.027206,-61.24857,327.7726,324.6342,10,0.02756425,0.3295992,0.04679387,0.08997347,-0.001275618,0.4269811,-0.1656058,0.5196562,-0.1053526,0.1172652,-0.01444882,0.0001241604,1
2013-09-19 16:56:59.327,226,4.52,51.0396,13.79292,108,0.1598753,-1,6,5,1379602618,0.01106262,-0.4840851,-0.8695068,14.81873,-3.161743,-60.82809,327.984,324.8456,10,0.1065712,0.240093,0.1580152,0.08628464,0.01281369,0.4281791,0.01891328,0.3249477,0.04261557,0.09936635,-0.028236,-0.008198017,1
2013-09-19 16:56:59.333,227,4.54,51.0396,13.79292,108,0.1598753,-1,6,5,1379602618,0.01071167,-0.5051422,-0.9582062,15.6259,-2.892685,-60.82809,328.5984,325.46,10,0.03329484,0.3408242,0.2302833,0.09104786,0.01799329,0.4304916,0.06670029,0.2868842,0.2027009,0.02619079,-0.05250049,0.04258576,1
2013-09-19 16:56:59.354,228,4.56,51.0396,13.79292,108,0.1598753,-1,6,5,1379602618,-0.01133728,-0.5159454,-1.092758,16.29857,-2.892685,-60.54779,328.0078,324.8694,10,0.1221089,0.1956819,0.3503681,0.09874053,0.02297666,0.4373404,0.05492791,0.300237,0.2833764,-0.01010063,-0.08161051,-0.05256401,1
2013-09-19 16:56:59.388,229,4.58,51.0396,13.79292,108,0.1598753,-1,6,5,1379602618,-0.01133728,-0.5159454,-1.092758,16.29857,-2.892685,-60.54779,328.0078,324.8694,10,0.1353054,0.1373595,0.3930844,0.09874053,0.02297666,0.4373404,0.05492791,0.300237,0.2833764,-0.01010063,-0.08161051,-0.05256401,1
2013-09-19 16:56:59.413,230,4.6,51.0396,13.79292,108,0.1598753,-1,6,5,1379602618,-0.08068848,-0.6051941,-1.236633,16.97122,-3.834412,-60.26749,327.0303,323.8919,10,0.2190996,0.2112678,0.3646448,0.1210719,0.02240905,0.4444051,0.142778,0.1470973,0.3745226,-0.107633,-0.1063951,-0.3151183,1
2013-09-19 16:56:59.452,231,4.62,51.0396,13.79292,108,0.1598753,-1,6,5,1379602618,-0.08068848,-0.6051941,-1.236633,16.97122,-3.834412,-60.26749,327.0303,323.8919,10,0.309581,0.4501741,0.3969434,0.1266755,0.02247401,0.4470735,0.2104734,0.2066136,0.3604678,-0.1295011,-0.1045673,-0.3697975,1
2013-09-19 16:56:59.474,232,4.64,51.0396,13.79292,108,0.1598753,-1,6,5,1379602618,0.004852295,-0.6163025,-1.143158,17.50932,-6.255966,-60.26752,324.6404,321.502,10,-0.05435698,0.02065281,0.1646595,0.1433446,0.03531707,0.4578675,0.1085902,0.4231861,0.3074628,-0.08999182,-0.2485307,-0.1415261,1
2013-09-19 16:56:59.508,233,4.66,51.0396,13.79292,108,0.1598753,-1,6,5,1379602618,0.1467743,-0.5141449,-1.422546,17.77838,-7.063141,-60.96829,324.5257,321.3873,10,-0.231495,-0.2628481,0.06524345,0.1466464,0.03602698,0.4578753,-0.06309419,0.01599354,0.1604967,-0.08203737,-0.2453499,-0.1191981,1
2013-09-19 16:56:59.513,234,4.68,51.0396,13.79292,108,0.1598753,-1,6,5,1379602618,0.1467743,-0.5141449,-1.422546,17.91292,-8.004852,-61.52893,323.4578,320.3194,10,-0.2437594,-0.1586818,0.05125893,0.1481169,0.03258079,0.4553792,-0.2402322,-0.2675074,0.06108068,0.03190178,-0.1122296,-0.3604999,1
2013-09-19 16:56:59.533,235,4.7,51.0396,13.79292,108,0.1598753,-1,6,5,1379602618,0.3871918,-0.354599,-1.095047,18.51831,-9.013855,-61.45883,320.9998,317.8615,10,0.6064154,0.5827111,0.7387433,0.1561006,0.03206455,0.4570932,0.5030364,0.4845669,0.4648396,0.3167064,0.00852604,-0.5992005,1
2013-09-19 16:56:59.567,236,4.72,51.0396,13.79292,108,0.1598753,-1,6,5,1379602618,0.3233185,-0.3641357,-0.8241425,18.51831,-9.013855,-61.45883,320.9998,317.8615,10,0.6064154,0.5827111,0.7387433,0.1561006,0.03206455,0.4570932,0.5030364,0.4845669,0.4648396,0.3167064,0.00852604,-0.5992005,1
2013-09-19 16:56:59.573,237,4.74,51.0396,13.79292,108,0.1598753,-1,6,5,1379602618,0.2913971,-0.3673248,-0.7716827,18.78738,-10.0901,-61.45883,319.746,316.6076,10,0.05093935,-0.1458816,0.7823917,0.1910294,0.03422064,0.4784937,0.2788354,0.120682,0.8252618,0.2929471,0.09630682,0.06302733,1
2013-09-19 16:56:59.594,238,4.76,51.0396,13.79292,108,0.1598753,-1,6,5,1379602618,0.2911682,-0.3471832,-0.8866272,18.31653,-10.83003,-61.5289,320.4503,317.3119,10,-0.1439966,-0.2465994,0.7300649,0.2032795,0.02756034,0.4805265,0.04220232,-0.1505408,0.778229,0.2873315,0.09031312,0.1190352,1
2013-09-19 16:56:59.631,239,4.78,51.0396,13.79292,108,0.1598753,-1,6,5,1379602618,0.2830048,-0.3270874,-0.9882202,18.11473,-11.56996,-61.1785,320.3074,317.169,10,-0.2605152,-0.2017219,0.6935114,0.2148821,0.01899675,0.4795072,-0.1527336,-0.2512586,0.7259022,0.2752304,0.09970872,0.06519339,1
2013-09-19 16:56:59.654,240,4.8,51.0396,13.79292,108,0.1598753,-1,6,5,1379602618,0.2032013,-0.2970276,-1.044968,17.30754,-12.10809,-61.31866,319.8173,316.6789,10,-0.01580773,0.114938,0.9335306,0.26079,-0.009045574,0.4631644,-0.2154224,-0.007773403,0.8373452,0.2710777,0.1346781,-0.1934824,1
2013-09-19 16:56:59.693,241,4.82,51.0396,13.79292,108,0.1598753,-1,6,5,1379602618,0.2032013,-0.2970276,-1.044968,16.76942,-13.0498,-61.8793,317.1184,313.98,10,0.1285226,0.248404,1.004428,0.26079,-0.009045574,0.4631644,-0.2154224,-0.007773403,0.8373452,0.2710777,0.1346781,-0.1934824,1
2013-09-19 16:56:59.714,242,4.84,51.0396,13.79292,108,0.1598753,-1,6,5,1379602618,0.02946472,-0.3030396,-0.7241821,15.49138,-14.19333,-62.36987,315.005,311.8666,10,0.5373226,0.04202388,1.095827,0.322032,-0.02553071,0.4688177,0.3614836,0.1907794,1.063611,0.09203319,0.1540566,0.1134005,1
2013-09-19 16:56:59.751,243,4.86,51.0396,13.79292,108,0.1598753,-1,6,5,1379602618,-0.06155396,-0.3009186,-0.6159973,15.49138,-14.19333,-62.36987,315.005,311.8666,10,0.5896827,-0.1274616,1.032151,0.322032,-0.02553071,0.4688177,0.3614836,0.1907794,1.063611,0.09203319,0.1540566,0.1134005,1
2013-09-19 16:56:59.774,244,4.88,51.03959,13.79292,104,0.2081797,-1,4,5,1379602619,-0.08641052,-0.3209534,-0.6106262,14.95325,-17.55659,-61.94937,310.3011,307.1627,10,0.4758741,-0.004828844,0.5461425,0.3836077,-0.05863358,0.4962887,0.5050201,-0.1435522,0.7193789,-0.06214774,0.1646876,0.2762822,1
2013-09-19 16:56:59.816,245,4.9,51.03959,13.79292,104,0.2081797,-1,4,5,1379602619,-0.05041504,-0.3104553,-0.581955,14.95325,-17.55659,-61.94937,310.3011,307.1627,10,0.3998398,0.1385275,0.3718883,0.3935126,-0.06417443,0.5024109,0.4671375,-0.009487835,0.5419799,-0.05439028,0.1670868,0.2557541,1
2013-09-19 16:56:59.833,246,4.92,51.03959,13.79292,104,0.2081797,-1,4,5,1379602619,0.1246948,-0.312973,-0.6199036,14.34787,-20.44901,-61.3187,306.1571,303.0187,10,-0.0125078,0.1727318,-0.1314555,0.4063091,-0.05814604,0.5164878,0.06170323,0.2623528,-0.07122754,0.06827889,0.1864256,0.3039109,1
2013-09-19 16:56:59.871,247,4.94,51.03959,13.79292,104,0.2081797,-1,4,5,1379602619,0.1246948,-0.312973,-0.6199036,16.09679,-21.65981,-59.91714,302.6558,299.5174,10,-0.06921103,0.1226444,-0.110086,0.4043871,-0.05442421,0.5166032,-0.02124437,0.1680729,-0.135618,0.1169855,0.184237,0.2828874,1
2013-09-19 16:56:59.894,248,4.96,51.03959,13.79292,104,0.2081797,-1,4,5,1379602619,0.2285919,-0.4599762,-0.8140564,16.09679,-21.65981,-59.91714,302.6558,299.5174,10,-0.0159811,0.205584,0.2546147,0.4010702,-0.04742845,0.5135809,-0.06970503,0.142301,0.06195426,0.3036386,0.1423003,0.1092386,1
2013-09-19 16:56:59.930,249,4.98,51.03959,13.79292,104,0.2081797,-1,4,5,1379602619,0.2285919,-0.4599762,-0.8140564,16.97124,-22.13065,-59.56677,300.9431,297.8047,10,-0.03795777,0.2185235,0.3738066,0.4010702,-0.04742845,0.5135809,-0.06970503,0.142301,0.06195426,0.3036386,0.1423003,0.1092386,1
2013-09-19 16:56:59.954,250,5,51.03959,13.79292,104,0.2081797,-1,4,5,1379602619,0.1101837,-0.5841827,-0.9124298,18.3838,-22.06339,-59.21637,300.8915,297.7531,10,-0.491795,0.1991317,0.2541662,0.4210624,-0.04579413,0.5066648,-0.3133658,0.2142282,0.3545936,0.1797974,-0.02521908,0.05780787,1
2013-09-19 16:56:59.989,251,5.02,51.03959,13.79292,104,0.2081797,-1,4,5,1379602619,0.1557617,-0.6218567,-1.116928,17.98021,-22.33244,-59.77701,302.7773,299.6389,10,-0.5295216,-0.01248117,0.2319645,0.4252208,-0.04500875,0.50035,-0.5005314,0.1944729,0.2500039,0.1496617,-0.1044501,-0.03590367,1
2013-09-19 16:57:00.014,252,5.04,51.03959,13.79292,104,0.2081797,-1,4,5,1379602619,0.09346008,-0.6462402,-1.088165,17.37482,-22.93784,-60.40771,302.0001,298.8617,10,-0.1325032,0.2108715,0.6359519,0.4427116,-0.04983565,0.4761391,-0.06400191,0.2028699,0.5191978,0.2124107,-0.2220688,-0.3822297,1
2013-09-19 16:57:00.052,253,5.06,51.03959,13.79292,104,0.2081797,-1,4,5,1379602619,-0.124939,-0.639679,-1.101288,16.29857,-22.93784,-60.82819,301.9341,298.7957,10,-0.4244804,0.01519493,0.5830603,0.4427116,-0.04983565,0.4761391,-0.06400191,0.2028699,0.5191978,0.2124107,-0.2220688,-0.3822297,1
2013-09-19 16:57:00.074,254,5.08,51.03959,13.79292,104,0.2081797,-1,4,5,1379602619,0.07975769,-0.4906158,-1.662384,15.35684,-22.93784,-60.82822,301.3973,298.2589,10,-0.3408436,0.4694572,0.1203818,0.4674486,-0.05996151,0.4496688,-0.7566388,-0.03144293,0.03833377,-0.1290455,-0.1593879,-0.5868367,1
2013-09-19 16:57:00.110,255,5.1,51.03959,13.79292,104,0.2081797,-1,4,5,1379602619,0.07975769,-0.4906158,-1.662384,14.75145,-23.27415,-61.03845,300.2299,297.0916,10,0.2028112,0.8262891,0.4745772,0.4679964,-0.0562203,0.4425585,-0.3495798,0.4647985,0.1162195,-0.003635619,-0.1163333,-0.7278957,1
2013-09-19 16:57:00.134,256,5.12,51.03959,13.79292,104,0.2081797,-1,4,5,1379602619,-0.1956635,-0.3420563,-0.5702667,14.54965,-23.47597,-61.10852,295.6485,292.5101,10,0.7401798,0.110224,1.090476,0.5010978,-0.04145516,0.459978,0.870167,0.439674,1.076382,0.1147877,0.07860246,-0.04576287,1
2013-09-19 16:57:00.168,257,5.14,51.03959,13.79292,104,0.2081797,-1,4,5,1379602619,-0.1956635,-0.3420563,-0.5702667,14.54965,-23.47597,-61.10852,295.6485,292.5101,10,0.3483798,-0.01960273,0.9190167,0.5185621,-0.04644914,0.4704259,0.7314438,0.1055653,1.086314,0.01854633,0.1020697,0.1364314,1
2013-09-19 16:57:00.173,258,5.16,51.03959,13.79292,104,0.2081797,-1,4,5,1379602619,-0.1932373,-0.3489227,-0.7892914,14.54967,-24.28314,-60.54791,297.594,294.4556,10,-0.5466511,0.04538266,0.3545868,0.5453247,-0.05922248,0.4756606,-0.2096222,-0.04685561,0.6046436,-0.1777445,0.114191,0.2759207,1
2013-09-19 16:57:00.194,259,5.18,51.03959,13.79292,104,0.2081797,-1,4,5,1379602619,-0.04304504,-0.3293457,-1.076843,14.34787,-25.02306,-60.47784,297.0614,293.923,10,-0.4311194,0.3606527,0.3275981,0.5554118,-0.06197941,0.4600627,-0.6163423,0.1701145,0.2790229,-0.06032994,0.1151773,-0.05178648,1
2013-09-19 16:57:00.232,260,5.2,51.03959,13.79292,104,0.2081797,-1,4,5,1379602619,0.1056213,-0.288559,-1.034424,14.34787,-25.02306,-60.47784,297.0614,293.923,10,-0.4311194,0.3606527,0.3275981,0.5554118,-0.06197941,0.4600627,-0.6163423,0.1701145,0.2790229,-0.06032994,0.1151773,-0.05178648,1
2013-09-19 16:57:00.254,261,5.22,51.03959,13.79292,104,0.2081797,-1,4,5,1379602619,0.04071045,-0.2699585,-0.6295166,14.41515,-26.03204,-59.14636,287.7294,284.591,10,0.2387109,0.3386047,0.7721857,0.5840272,-0.04675262,0.4456712,0.1577319,0.4322888,0.7232209,0.1283216,0.1488981,0.04019053,1
2013-09-19 16:57:00.290,262,5.24,51.03959,13.79292,104,0.2081797,-1,4,5,1379602619,0.04071045,-0.2699585,-0.6295166,14.34789,-26.90649,-58.37552,283.1994,280.061,10,0.1723302,0.343114,0.7702125,0.5840272,-0.04675262,0.4456712,0.1577319,0.4322888,0.7232209,0.1283216,0.1488981,0.04019053,1
2013-09-19 16:57:00.314,263,5.26,51.03959,13.79292,104,0.2081797,-1,4,5,1379602619,0.02198792,-0.3348541,-0.5552826,14.81873,-27.37735,-57.46454,281.2941,278.1557,10,0.008385762,0.3479758,0.8166416,0.6312088,-0.04714474,0.4510171,-0.005013547,0.3968714,0.7771263,0.07525166,0.1507249,0.4180319,1
2013-09-19 16:57:00.356,264,5.28,51.03959,13.79292,104,0.2081797,-1,4,5,1379602619,0.02198792,-0.3348541,-0.5552826,14.81873,-27.37735,-57.46454,281.2941,278.1557,10,0.02911794,0.2413191,0.8464274,0.6435429,-0.04745429,0.4504088,-0.0003623204,0.3433214,0.8124776,0.0793267,0.134415,0.4010563,1
2013-09-19 16:57:00.374,265,5.3,51.03959,13.79292,104,0.2081797,-1,4,5,1379602619,-0.06343079,-0.3713989,-0.7392883,14.54967,-28.99173,-56.6236,275.329,272.1906,10,-0.1252405,0.119443,0.7958761,0.6824477,-0.05609138,0.4485273,-0.07164707,0.1300036,0.8309539,0.02646885,0.08428898,0.3348197,1
2013-09-19 16:57:00.411,266,5.32,51.03959,13.79292,104,0.2081797,-1,4,5,1379602619,-0.06343079,-0.3713989,-0.7392883,13.74248,-29.52985,-56.76376,272.9767,269.8383,10,-0.09553957,-0.04715579,0.7910816,0.706541,-0.06366198,0.4437051,-0.136327,0.06164134,0.7835262,-0.003408726,0.06699931,0.2084056,1
2013-09-19 16:57:00.434,267,5.34,51.03959,13.79292,104,0.2081797,-1,4,5,1379602619,-0.07635498,-0.3950806,-0.9256897,12.80077,-30.2025,-56.9039,270.1986,267.0602,10,-0.09625543,-0.1318267,0.7420427,0.74194,-0.08284511,0.4365006,-0.1150325,-0.1615909,0.7620471,-0.009832188,0.04764872,0.06595507,1
2013-09-19 16:57:00.466,268,5.36,51.03959,13.79292,104,0.2081797,-1,4,5,1379602619,-0.04888916,-0.4403229,-1.012772,11.79178,-31.07695,-56.83383,266.4917,263.3533,10,-0.1182462,-0.02875841,0.7158843,0.7531902,-0.08976325,0.434061,-0.1050033,-0.136481,0.7378789,0.004974788,0.02547807,-0.022077,1
2013-09-19 16:57:00.473,269,5.38,51.03959,13.79292,104,0.2081797,-1,4,5,1379602619,-0.02938843,-0.4602509,-1.125214,11.52271,-31.07695,-56.83383,265.587,262.4486,10,-0.08561397,0.1246341,0.7636971,0.7745126,-0.09905049,0.428736,-0.1125353,0.05639086,0.724688,0.04104923,-0.02460134,-0.1077375,1
2013-09-19 16:57:00.494,270,5.4,51.03959,13.79292,104,0.2081797,-1,4,5,1379602619,-0.0405426,-0.4873962,-1.21991,10.1774,-31.61508,-56.5535,262.0164,258.878,10,-0.02577727,0.1693842,0.8051642,0.7856171,-0.1022268,0.4262893,-0.09446096,0.1199765,0.7595499,0.06352771,-0.04675581,-0.2194607,1
2013-09-19 16:57:00.527,271,5.42,51.03959,13.79292,104,0.2081797,-1,4,5,1379602619,-0.1048126,-0.4993286,-1.253006,10.1774,-31.61508,-56.5535,262.0164,258.878,10,0.0219085,0.2095149,0.8308274,0.7974147,-0.1050154,0.4243664,-0.03462424,0.1647267,0.8010169,0.0664262,-0.06349149,-0.2680981,1
2013-09-19 16:57:00.533,272,5.44,51.03959,13.79292,104,0.2081797,-1,4,5,1379602619,-0.1442566,-0.5235748,-1.259491,9.437469,-31.9514,-55.78265,258.5886,255.4502,10,0.07293253,0.3678268,0.7460321,0.8222414,-0.109311,0.4224167,0.04766242,0.2619987,0.8014044,0.02678085,-0.08487666,-0.3273976,1
2013-09-19 16:57:00.554,273,5.46,51.03959,13.79292,104,0.2081797,-1,4,5,1379602619,-0.07119751,-0.5309601,-1.174011,9.033875,-32.08594,-55.36218,256.7166,253.5782,10,0.1301077,0.7238637,0.6409116,0.8444367,-0.1074538,0.421859,0.06707159,0.5152919,0.6674514,-0.04641184,-0.1141176,-0.3524236,1
2013-09-19 16:57:00.588,274,5.48,51.03959,13.79292,104,0.2081797,-1,4,5,1379602619,-0.07119751,-0.5309601,-1.174011,9.033875,-32.35501,-54.94174,256.4947,253.3563,10,0.1911894,0.9521291,0.6620759,0.8543038,-0.102548,0.4222249,0.1212608,0.7192062,0.6367643,-0.02474,-0.1142874,-0.3332437,1
2013-09-19 16:57:00.613,275,5.5,51.03959,13.79292,104,0.2081797,-1,4,5,1379602619,0.01687622,-0.5250244,-1.018799,8.226685,-33.43126,-54.66144,251.1354,247.997,10,-0.2708667,0.0001059938,0.7309229,0.8862491,-0.08288706,0.4207248,-0.1956129,0.4080966,0.767712,0.1523544,-0.1329292,0.00215817,1
2013-09-19 16:57:00.649,276,5.52,51.03959,13.79292,104,0.2081797,-1,4,5,1379602619,-0.04075623,-0.4378967,-1.367783,8.428497,-33.63306,-54.87167,248.7124,245.574,10,-0.2215936,-0.06573427,0.5893884,0.8972785,-0.08572291,0.4163463,-0.2797134,-0.004551444,0.7267758,0.09518006,-0.1206028,-0.1075844,1
2013-09-19 16:57:00.674,277,5.54,51.03959,13.79292,104,0.2081797,-1,4,5,1379602619,0.291687,-0.3140411,-0.9591522,8.092163,-34.10391,-53.8205,243.6864,240.5481,10,0.1525656,0.8504557,1.005031,0.924716,-0.08569111,0.4094996,0.07837318,0.8090086,0.7492675,0.2780339,0.06091582,-0.2998061,1
2013-09-19 16:57:00.710,278,5.56,51.03959,13.79292,104,0.2081797,-1,4,5,1379602619,0.1996155,-0.337326,-0.8045502,8.092163,-34.10391,-53.8205,243.6864,240.5481,10,0.04295759,0.546625,1.193782,0.9387439,-0.07946183,0.4101757,0.1437189,0.8457983,1.000884,0.3568362,0.05840787,-0.1849792,1
2013-09-19 16:57:00.734,279,5.58,51.03958,13.79294,103,0.2681379,-1,3,5,1379602620,0.03620911,-0.3318329,-1.01442,7.621323,-33.76758,-52.20868,239.8123,236.6739,10,-0.660514,-0.46288,0.765315,1.005454,-0.1040519,0.3943262,-0.5394782,-0.5884821,0.9612515,0.1606974,0.01873815,-0.008571898,1
2013-09-19 16:57:00.775,280,5.6,51.03958,13.79294,103,0.2681379,-1,3,5,1379602620,0.03620911,-0.3318329,-1.01442,7.083176,-33.22946,-51.08743,239.2012,236.0628,10,-0.7614452,-0.2477387,0.6181554,1.016693,-0.115557,0.3844575,-0.6693605,-0.4675374,0.7611679,0.1462816,0.0237074,-0.06642406,1
2013-09-19 16:57:00.794,281,5.62,51.03958,13.79294,103,0.2681379,-1,3,5,1379602620,0.04420471,-0.2349854,-0.9528961,7.150436,-32.89313,-50.59692,238.9698,235.8315,10,-0.6581752,-0.04392938,0.7364964,1.040487,-0.1311945,0.3491542,-0.7538529,-0.05430636,0.6807105,0.2356571,0.08822747,-0.07003019,1
2013-09-19 16:57:00.829,282,5.64,51.03958,13.79294,103,0.2681379,-1,3,5,1379602620,0.04420471,-0.2349854,-0.9528961,6.545059,-32.1532,-50.38669,237.7105,234.5721,10,-0.5684962,-0.02829769,0.7434481,1.049535,-0.1349516,0.3382048,-0.6670231,-0.04858614,0.7323492,0.209303,0.09238373,-0.03472296,1
2013-09-19 16:57:00.854,283,5.66,51.03958,13.79294,103,0.2681379,-1,3,5,1379602620,0.01161194,-0.2240143,-0.819458,6.20874,-31.54782,-50.59692,236.9369,233.7985,10,-0.2120558,0.2757506,0.8640682,1.079299,-0.1416501,0.3121109,-0.3740364,0.185923,0.8055614,0.1299618,0.07763708,0.06642334,1
2013-09-19 16:57:00.887,284,5.68,51.03958,13.79294,103,0.2681379,-1,3,5,1379602620,0.02424622,-0.2254028,-0.7342529,5.33429,-30.94243,-50.66699,235.4372,232.2988,10,-0.05427176,0.3014581,0.9538114,1.090859,-0.1417387,0.3067375,-0.2209078,0.2710952,0.8599205,0.1462828,0.07793579,0.1243057,1
2013-09-19 16:57:00.893,285,5.7,51.03958,13.79294,103,0.2681379,-1,3,5,1379602620,-0.04376221,-0.2346954,-0.6082153,4.796173,-31.21149,-51.08743,232.7621,229.6237,10,0.09849595,0.278503,1.059457,1.103734,-0.1416461,0.3033289,-0.06312376,0.2968027,0.9496638,0.1606222,0.07602725,0.1584432,1
2013-09-19 16:57:00.914,286,5.72,51.03958,13.79294,103,0.2681379,-1,3,5,1379602620,-0.07086182,-0.2615814,-0.5902863,3.518112,-31.54782,-51.71814,229.5289,226.3905,10,0.04309634,0.06293955,0.9513722,1.1489,-0.1454615,0.300878,0.06440976,0.1583868,1.001337,0.07946222,0.04876975,0.3645306,1
2013-09-19 16:57:00.949,287,5.74,51.03958,13.79294,103,0.2681379,-1,3,5,1379602620,-0.09971619,-0.3067932,-0.7016754,2.576401,-31.9514,-52.13858,227.1645,224.0261,10,0.00109669,-0.07102811,0.8490272,1.1489,-0.1454615,0.300878,0.06440976,0.1583868,1.001337,0.07946222,0.04876975,0.3645306,1
2013-09-19 16:57:00.974,288,5.76,51.03958,13.79294,103,0.2681379,-1,3,5,1379602620,-0.05303955,-0.3359375,-0.9833832,1.163803,-32.1532,-52.34882,224.0604,220.922,10,-0.00915435,-0.1586064,0.4908669,1.195038,-0.1630017,0.2937173,-0.05327176,-0.1974639,0.5842915,0.07531398,-0.04125243,0.1052989,1
2013-09-19 16:57:01.008,289,5.78,51.03958,13.79294,103,0.2681379,-1,3,5,1379602620,-0.05303955,-0.3359375,-0.9833832,0.6929474,-32.22046,-52.27872,223.7115,220.5732,10,0.07008748,-0.09614971,0.4226027,1.202425,-0.1676181,0.2919177,-0.01800616,-0.1632617,0.4867193,0.08754103,-0.0442267,0.02128274,1
2013-09-19 16:57:01.034,290,5.8,51.03958,13.79294,103,0.2681379,-1,3,5,1379602620,-0.08013916,-0.3371887,-1.173096,-0.5178375,-32.22047,-51.57791,221.1231,217.9847,10,0.07498849,0.007188404,0.1384125,1.21459,-0.1632647,0.2944927,0.07391696,0.01709937,0.2223825,0.09437043,-0.05300732,-0.1087851,1
2013-09-19 16:57:01.068,291,5.82,51.03958,13.79294,103,0.2681379,-1,3,5,1379602620,-0.08013916,-0.3371887,-1.173096,-1.459549,-31.9514,-51.29761,218.4402,215.3018,10,0.1260357,-0.01323165,0.06907947,1.217044,-0.1637606,0.2949312,0.06610938,0.002563318,0.1342522,0.08543377,-0.04991744,-0.136225,1
2013-09-19 16:57:01.073,292,5.84,51.03958,13.79294,103,0.2681379,-1,3,5,1379602620,-0.07575989,-0.345871,-1.145935,-1.795883,-31.7496,-51.08737,217.5436,214.4052,10,0.07191627,0.2045465,-0.08843586,1.219022,-0.164223,0.297643,0.111617,0.05263983,-0.01037077,0.08076638,-0.05267958,-0.2230463,1
2013-09-19 16:57:01.094,293,5.86,51.03958,13.79294,103,0.2681379,-1,3,5,1379602620,-0.03312683,-0.3738861,-1.165237,-1.459549,-31.54781,-49.89603,217.7708,214.6324,10,-0.08950272,0.2049287,-0.1868125,1.21619,-0.157772,0.2992147,-0.03714607,0.2606357,-0.1700968,0.0924743,-0.06552067,-0.1873426,1
2013-09-19 16:57:01.127,294,5.88,51.03958,13.79294,103,0.2681379,-1,3,5,1379602620,0.004745483,-0.4089355,-1.204834,-1.459549,-31.54781,-49.89603,217.7708,214.6324,10,-0.09197014,0.1895207,-0.1843419,1.21619,-0.157772,0.2992147,-0.03714607,0.2606357,-0.1700968,0.0924743,-0.06552067,-0.1873426,1
2013-09-19 16:57:01.133,295,5.9,51.03958,13.79294,103,0.2681379,-1,3,5,1379602620,-0.07823181,-0.3839874,-1.081177,-1.93042,-31.48055,-49.68579,215.5677,212.4293,10,-0.2480769,0.2600297,-0.1961266,1.21042,-0.1504823,0.2975436,-0.1008491,0.1848956,-0.1885021,0.1480732,-0.1157629,-0.259579,1
2013-09-19 16:57:01.154,296,5.92,51.03958,13.79294,103,0.2681379,-1,3,5,1379602620,-0.1438293,-0.3503571,-1.260223,-1.661346,-31.48056,-50.24643,215.4693,212.331,10,-0.8952852,0.1227118,-0.5418124,1.202489,-0.1413598,0.2893957,-0.58911,0.2553523,-0.3174672,0.05679895,-0.09861435,-0.1323201,1
2013-09-19 16:57:01.187,297,5.94,51.03958,13.79294,103,0.2681379,-1,3,5,1379602620,-0.01756287,-0.2801208,-1.589005,-0.5850983,-31.21149,-49.96609,216.2048,213.0664,10,-1.168969,0.2621334,-0.7496378,1.194235,-0.1367129,0.2792834,-0.9041641,0.1180868,-0.5459726,0.00516752,-0.09068134,-0.202318,1
2013-09-19 16:57:01.193,298,5.96,51.03958,13.79294,103,0.2681379,-1,3,5,1379602620,0.2397308,-0.2786713,-1.883972,-0.5850983,-31.21149,-49.96609,216.2048,213.0664,10,-0.6035247,0.6744801,-0.5005246,1.169644,-0.1265793,0.2505823,-1.177848,0.2575084,-0.7537979,0.1047359,-0.03215269,-0.6279869,1
2013-09-19 16:57:01.214,299,5.98,51.03958,13.79294,103,0.2681379,-1,3,5,1379602620,0.3693085,-0.2084503,-1.577637,-0.04696655,-30.67337,-49.68579,216.4734,213.335,10,0.169849,0.952434,0.02204565,1.159509,-0.1168918,0.2401198,-0.6124036,0.6698552,-0.5046848,0.2256912,-0.06599879,-0.8445382,1
2013-09-19 16:57:01.247,300,6,51.03958,13.79294,103,0.2681379,-1,3,5,1379602620,0.3693085,-0.2084503,-1.577637,-0.04696655,-29.73164,-50.2464,213.7471,210.6087,10,0.8591368,0.8033764,0.6413739,1.156964,-0.1040651,0.2391174,0.1609702,0.9478091,0.01788549,0.3406526,-0.04182605,-0.9176807,1
2013-09-19 16:57:01.253,301,6.02,51.03958,13.79294,103,0.2681379,-1,3,5,1379602620,-0.1456909,-0.1674042,-0.629837,0.1548309,-30.33702,-50.03616,259.6748,256.5364,11,1.319883,0.06072913,1.166026,1.178813,-0.08974884,0.2623621,1.314239,0.4215917,1.037984,0.3872205,0.0547574,-0.4154415,1
2013-09-19 16:57:01.274,302,6.04,51.03958,13.79294,103,0.2681379,-1,3,5,1379602620,-0.279007,-0.2018738,-0.6420593,0.6929626,-30.06796,-49.47552,218.6799,215.5415,10,0.5951321,-0.2355944,0.8456932,1.214579,-0.09847949,0.2936967,1.025327,-0.1429316,1.092163,0.0581301,0.1430235,0.2418187,1
2013-09-19 16:57:01.309,303,6.06,51.03958,13.79294,103,0.2681379,-1,3,5,1379602620,-0.279007,-0.2018738,-0.6420593,0.6929626,-30.06796,-49.47552,218.6799,215.5415,10,0.1335229,-0.1615817,0.4852333,1.214579,-0.09847949,0.2936967,1.025327,-0.1429316,1.092163,0.0581301,0.1430235,0.2418187,1
2013-09-19 16:57:01.333,304,6.08,51.03958,13.79294,103,0.2681379,-1,3,5,1379602620,-0.0229187,-0.179306,-1.045212,0.3566284,-30.67336,-48.28418,215.1104,211.972,10,-0.1053605,0.1547691,0.2176799,1.244352,-0.1126124,0.2992576,-0.2786395,0.1061377,0.1781243,0.03079627,0.1180531,-0.01186169,1
2013-09-19 16:57:01.368,305,6.1,51.03958,13.79294,103,0.2681379,-1,3,5,1379602620,0.03079224,-0.163269,-0.9399567,0.2220917,-32.01866,-48.00388,213.9866,210.8483,10,0.1892304,0.3220412,0.3938853,1.243785,-0.1006654,0.2879421,-0.1142892,0.1501439,0.2135202,0.0734394,0.1046736,-0.09123555,1
2013-09-19 16:57:01.373,306,6.12,51.03958,13.79294,103,0.2681379,-1,3,5,1379602620,0.03079224,-0.163269,-0.9399567,0.2220917,-32.01866,-48.00388,213.9866,210.8483,10,0.1892304,0.3220412,0.3938853,1.247577,-0.09897175,0.2875431,0.04723315,0.2303767,0.2921429,0.1153681,0.1120272,-0.04764134,1
2013-09-19 16:57:01.394,307,6.14,51.03958,13.79294,103,0.2681379,-1,3,5,1379602620,0.006576538,-0.1968689,-0.6768188,0.02029419,-31.14421,-48.21411,210.6855,207.5471,10,0.3202691,0.3988917,0.4444217,1.259293,-0.0938439,0.2915796,0.248822,0.3338706,0.425408,0.1020801,0.1187186,0.1638122,1
2013-09-19 16:57:01.431,308,6.16,51.03958,13.79294,103,0.2681379,-1,3,5,1379602620,0.001800537,-0.2140656,-0.5465698,-0.2487793,-31.14421,-48.21411,254.5957,251.4574,11,0.3668627,0.4557428,0.4530815,1.266033,-0.09056634,0.2950306,0.3113405,0.3942666,0.440262,0.09102094,0.103437,0.2209384,1
2013-09-19 16:57:01.454,309,6.18,51.03958,13.79294,103,0.2681379,-1,3,5,1379602620,-0.01631165,-0.2785797,-0.6074677,-0.383316,-30.87515,-48.07397,198.6724,195.534,10,0.06653561,0.2875479,0.3685607,1.292538,-0.07278069,0.3080453,0.09903483,0.4069658,0.3931563,0.05730015,0.07646615,0.4769556,1
2013-09-19 16:57:01.493,310,6.2,51.03958,13.79294,103,0.2681379,-1,3,5,1379602620,-0.01631165,-0.2785797,-0.6074677,-0.4505768,-30.94241,-48.70468,190.1895,187.0511,10,0.02634639,0.1943045,0.3348206,1.292538,-0.07278069,0.3080453,0.09903483,0.4069658,0.3931563,0.05730015,0.07646615,0.4769556,1
2013-09-19 16:57:01.514,311,6.22,51.03958,13.79294,103,0.2681379,-1,3,5,1379602620,-0.03453064,-0.3327026,-0.9772491,-0.31604,-30.80789,-47.72357,187.0806,183.9423,10,-0.1356372,0.3753598,0.1437082,1.310877,-0.06506631,0.3060627,-0.1327331,0.2578097,0.2018604,-0.002820602,-0.01616774,0.1704732,1
2013-09-19 16:57:01.550,312,6.24,51.03958,13.79294,103,0.2681379,-1,3,5,1379602620,-0.03453064,-0.3327026,-0.9772491,-0.1815033,-30.94243,-47.72357,186.9555,183.8172,10,-0.01172856,0.4785024,0.1638427,1.313038,-0.06106182,0.3039481,-0.1445737,0.3707314,0.139547,-0.004059689,-0.03028494,0.1010199,1
2013-09-19 16:57:01.574,313,6.26,51.03958,13.79294,103,0.2681379,-1,3,5,1379602620,-0.01409912,-0.3734131,-1.120453,-0.3833008,-31.68234,-47.65347,185.394,182.2556,10,0.3038603,0.4174771,0.3523937,1.319051,-0.04157987,0.3076038,0.1298372,0.4688964,0.2422614,0.04091377,-0.04748968,-0.1110554,1
2013-09-19 16:57:01.611,314,6.28,51.03958,13.79294,103,0.2681379,-1,3,5,1379602620,-0.06948853,-0.3759308,-1.064621,0.08757019,-31.88416,-47.58337,185.3351,182.1967,10,0.412443,0.3340717,0.4554621,1.323787,-0.03699449,0.3107607,0.2949277,0.4128683,0.3482257,0.03597741,-0.05856634,-0.1735807,1
2013-09-19 16:57:01.633,315,6.3,51.03958,13.79294,103,0.2681379,-1,3,5,1379602620,-0.1598816,-0.4067841,-1.065353,-0.181488,-32.28775,-47.86371,183.0907,179.9523,10,0.224933,0.313935,0.3894995,1.352295,-0.03091625,0.3316169,0.3295683,0.2733653,0.4761246,-0.1285945,-0.06335899,-0.1010162,1
2013-09-19 16:57:01.669,316,6.32,51.03958,13.79294,103,0.2681379,-1,3,5,1379602620,-0.1365967,-0.3988342,-1.122818,-0.7196198,-32.28775,-47.30307,181.0874,177.949,10,0.224933,0.313935,0.3894995,1.352295,-0.03091625,0.3316169,0.3295683,0.2733653,0.4761246,-0.1285945,-0.06335899,-0.1010162,1
2013-09-19 16:57:01.694,317,6.34,51.03958,13.79294,103,0.2681379,-1,3,5,1379602620,-0.03155518,-0.5126038,-0.9445648,-1.055954,-32.22049,-46.67236,178.8693,175.731,10,0.1617857,0.6127263,0.4088916,1.374264,-0.01973012,0.3406043,0.14949,0.4415448,0.385074,-0.05347179,-0.1031381,-0.1683635,1
2013-09-19 16:57:01.729,318,6.36,51.03958,13.79294,103,0.2681379,-1,3,5,1379602620,-0.1487274,-0.4516449,-1.008972,-1.661346,-32.96042,-46.46213,176.147,173.0086,10,0.00946807,0.412264,0.4131141,1.380223,-0.01388878,0.3427334,0.1528533,0.6081175,0.4047236,-0.0295067,-0.1848876,-0.07344899,1
2013-09-19 16:57:01.755,319,6.38,51.03958,13.79294,103,0.2681379,-1,3,5,1379602620,0.1344757,-0.3331451,-1.404251,-1.661346,-32.69136,-46.18182,174.5452,171.4068,10,-0.5322202,-0.1045743,-0.1454009,1.394075,-0.01202994,0.3375197,-0.3782909,-0.2184099,0.07375427,-0.1884171,-0.09908907,-0.1727308,1
2013-09-19 16:57:01.801,320,6.4,51.03958,13.79294,103,0.551609,-1,3,5,1379602621,0.1344757,-0.3331451,-1.404251,-0.8541718,-32.69138,-46.04169,177.0262,173.8878,10,-0.0172176,0.4898635,0.08887608,1.390102,-0.01175947,0.3241663,-0.393869,0.2154347,-0.153318,-0.003166007,-0.03115181,-0.3657476,1
2013-09-19 16:57:01.813,321,6.42,51.03958,13.79294,103,0.551609,-1,3,5,1379602621,0.3251953,-0.2795715,-0.8447266,-0.8541718,-32.69138,-46.04169,177.0262,173.8878,10,0.227883,-0.3442405,0.8144215,1.403321,0.0005719597,0.3280063,0.3144011,0.1685046,0.6708795,0.3573839,0.06431326,0.009872992,1
2013-09-19 16:57:01.854,322,6.44,51.03958,13.79294,103,0.551609,-1,3,5,1379602621,0.138916,-0.2939148,-0.802124,-0.9887085,-32.69138,-46.18185,175.2795,172.1411,10,0.03358406,-0.8775331,0.7342855,1.403321,0.0005719597,0.3280063,0.3144011,0.1685046,0.6708795,0.3573839,0.06431326,0.009872992,1
2013-09-19 16:57:01.874,323,6.46,51.03958,13.79294,103,0.551609,-1,3,5,1379602621,0.06332397,-0.2472076,-1.106888,-1.728622,-32.2205,-45.13068,176.587,173.4486,10,-0.543328,-0.9218487,0.2174615,1.441018,-0.05444596,0.3267472,-0.3627788,-1.092713,0.3527245,0.1040911,0.02219692,0.006738392,1
2013-09-19 16:57:01.909,324,6.48,51.03958,13.79294,103,0.551609,-1,3,5,1379602621,0.1210938,-0.2436066,-1.366302,-1.728622,-32.2205,-45.13068,176.587,173.4486,10,-0.546739,-0.7664738,0.1707033,1.444278,-0.06915817,0.3196512,-0.55226,-0.9264572,0.2132936,0.1107381,0.04456683,-0.06163706,1
2013-09-19 16:57:01.934,325,6.5,51.03958,13.79294,103,0.551609,-1,3,5,1379602621,0.1011963,-0.2253571,-0.969162,-3.813858,-31.61511,-44.5,176.8371,173.6988,10,0.1498297,-0.2014157,0.4530394,1.451718,-0.09972843,0.3033744,-0.04552568,-0.4652747,0.2852403,0.2334137,0.06838031,-0.3710562,1
2013-09-19 16:57:01.968,326,6.52,51.03958,13.79294,103,0.551609,-1,3,5,1379602621,0.1011963,-0.2253571,-0.969162,-4.688309,-30.8752,-44.00943,177.576,174.4376,10,0.3281662,-0.02093724,0.5663103,1.457556,-0.1054985,0.3039625,0.1408978,-0.2060242,0.4488716,0.2428553,0.0882286,-0.2617793,1
2013-09-19 16:57:01.994,327,6.54,51.03958,13.79294,103,0.551609,-1,3,5,1379602621,0.0259552,-0.2165985,-0.5335236,-5.22644,-30.33707,-44.71021,176.8692,173.7308,10,0.4385068,0.1375733,0.7236059,1.49367,-0.1171187,0.3186322,0.4385916,0.0932001,0.6775061,0.1535262,0.08226505,0.2198925,1
2013-09-19 16:57:02.028,328,6.56,51.03958,13.79294,103,0.551609,-1,3,5,1379602621,0.0259552,-0.2165985,-0.5335236,-5.562759,-30.13528,-44.49994,176.4186,173.2802,10,0.427873,0.1650665,0.8102524,1.49367,-0.1171187,0.3186322,0.4385916,0.0932001,0.6775061,0.1535262,0.08226505,0.2198925,1
2013-09-19 16:57:02.033,329,6.58,51.03958,13.79294,103,0.551609,-1,3,5,1379602621,0.0259552,-0.2165985,-0.5335236,-5.96637,-30.40434,-44.78027,175.4563,172.3179,10,0.427873,0.1650665,0.8102524,1.504613,-0.1189099,0.323475,0.429575,0.1329648,0.7194381,0.136693,0.09720589,0.384755,1
2013-09-19 16:57:02.054,330,6.6,51.03958,13.79294,103,0.551609,-1,3,5,1379602621,-0.07919312,-0.2769928,-0.4880829,-6.437225,-30.33707,-44.99051,174.1487,171.0103,10,0.4053281,-0.1053845,0.8839066,1.544174,-0.1270818,0.3365421,0.4352177,0.006769396,0.9266135,0.08285654,0.06858268,0.4374044,1
2013-09-19 16:57:02.091,331,6.62,51.03958,13.79294,103,0.551609,-1,3,5,1379602621,-0.146225,-0.3114471,-0.4893036,-6.437225,-30.33707,-44.99051,174.1487,171.0103,10,0.2847108,-0.1626099,0.7657787,1.558031,-0.132723,0.3406289,0.3963963,-0.1099929,0.8797389,0.0455373,0.0570871,0.4461724,1
2013-09-19 16:57:02.114,332,6.64,51.03958,13.79294,103,0.551609,-1,3,5,1379602621,-0.1026764,-0.3336029,-0.7431183,-7.042618,-30.94247,-43.79919,174.8549,171.7165,10,0.01936677,-0.2717098,0.3372872,1.587403,-0.1510944,0.3450746,0.06256437,-0.273394,0.4157718,-0.006851538,-0.005208492,0.3310856,1
2013-09-19 16:57:02.152,333,6.66,51.03958,13.79294,103,0.551609,-1,3,5,1379602621,-0.1158142,-0.3403473,-0.8842621,-7.648026,-31.14426,-43.72913,173.2673,170.1289,10,-0.04379409,-0.2118939,0.2445123,1.592659,-0.1566761,0.3446918,0.01043514,-0.2763182,0.3331196,0.02950248,0.001511388,0.2673132,1
2013-09-19 16:57:02.174,334,6.68,51.03958,13.79294,103,0.551609,-1,3,5,1379602621,-0.06867981,-0.3379364,-1.153564,-7.849808,-31.077,-42.95825,174.2198,171.0815,10,-0.2990991,-0.06739395,-0.2323304,1.596311,-0.1662404,0.3352082,-0.2694721,-0.0893035,-0.1466438,0.07527205,-0.01446378,-0.09602074,1
2013-09-19 16:57:02.209,335,6.7,51.03958,13.79294,103,0.551609,-1,3,5,1379602621,-0.06867981,-0.3379364,-1.153564,-7.917068,-30.74066,-43.02832,174.6074,171.469,10,-0.257716,-0.09949756,-0.3198153,1.596311,-0.1662404,0.3352082,-0.2694721,-0.0893035,-0.1466438,0.07527205,-0.01446378,-0.09602074,1
2013-09-19 16:57:02.234,336,6.72,51.03958,13.79294,103,0.551609,-1,3,5,1379602621,-0.02763367,-0.3651123,-1.202789,-8.051605,-30.60614,-43.44879,174.7433,171.6049,10,-0.2965808,-0.02571202,-0.3810094,1.576063,-0.1637563,0.3244928,-0.2158122,-0.01466516,-0.3806395,0.1040109,0.0007586263,-0.236483,1
2013-09-19 16:57:02.277,337,6.74,51.03958,13.79294,103,0.551609,-1,3,5,1379602621,-0.02763367,-0.3651123,-1.202789,-8.186127,-30.33707,-43.7291,174.4098,171.2714,10,-0.3236138,-0.02934351,-0.3824987,1.569859,-0.1620465,0.3215426,-0.3055122,-0.03032027,-0.385177,0.110116,-0.01174355,-0.2293145,1
2013-09-19 16:57:02.294,338,6.76,51.03958,13.79294,103,0.551609,-1,3,5,1379602621,-0.2223206,-0.3005524,-1.311249,-7.984329,-30.00075,-44.49997,174.7605,171.6222,10,-0.8044333,-0.2381716,-0.4905418,1.551258,-0.158921,0.3068663,-0.6153957,-0.1439586,-0.3687018,0.06086377,-0.04318778,-0.2377745,1
2013-09-19 16:57:02.327,339,6.78,51.03958,13.79294,103,0.551609,-1,3,5,1379602621,-0.2204132,-0.2629852,-1.494736,-7.984329,-30.00075,-44.49997,174.7605,171.6222,10,-1.002853,-0.2001677,-0.5798791,1.543202,-0.1594069,0.2976011,-0.8133647,-0.2427797,-0.4947093,-0.01223098,-0.02581839,-0.292727,1
2013-09-19 16:57:02.333,340,6.8,51.03958,13.79294,103,0.551609,-1,3,5,1379602621,-0.2204132,-0.2629852,-1.494736,-7.715286,-29.32809,-44.21964,175.471,172.3326,10,-0.9856223,-0.02014442,-0.5999841,1.532983,-0.1596494,0.2859055,-1.011784,-0.2047759,-0.5840466,-0.08525886,0.002607412,-0.4252306,1
2013-09-19 16:57:02.354,341,6.82,51.03958,13.79294,103,0.551609,-1,3,5,1379602621,0.009399414,-0.2516479,-1.25946,-7.782547,-28.99176,-44.85034,175.8312,172.6928,10,0.4658444,0.5102324,0.2402233,1.508884,-0.1445801,0.262534,0.03210515,0.5855968,-0.1155757,0.1399337,-0.01963102,-0.6976456,1
2013-09-19 16:57:02.393,342,6.84,51.03958,13.79294,103,0.551609,-1,3,5,1379602621,-0.1207123,-0.2350769,-0.8732147,-7.513489,-28.85724,-45.13065,176.532,173.3936,10,0.4658444,0.5102324,0.2402233,1.508884,-0.1445801,0.262534,0.03210515,0.5855968,-0.1155757,0.1399337,-0.01963102,-0.6976456,1
2013-09-19 16:57:02.414,343,6.86,51.03958,13.79294,103,0.551609,-1,3,5,1379602621,-0.2962494,-0.2433167,-0.8217163,-7.58075,-28.65544,-45.76135,173.9755,170.8372,10,-0.05202299,-0.3890809,0.2200376,1.532156,-0.1398516,0.2861167,0.2855391,-0.3277449,0.3726865,-0.0476519,0.04767086,0.1710653,1
2013-09-19 16:57:02.448,344,6.88,51.03958,13.79294,103,0.551609,-1,3,5,1379602621,-0.2962494,-0.2433167,-0.8217163,-7.042618,-28.65544,-45.62122,174.4227,171.2843,10,-0.3213064,-0.2111482,0.06637263,1.536052,-0.1463802,0.2863137,-0.06095596,-0.3936884,0.21587,-0.1375913,0.04961452,0.2125822,1
2013-09-19 16:57:02.453,345,6.9,51.03958,13.79294,103,0.551609,-1,3,5,1379602621,-0.1933899,-0.2629242,-1.136124,-7.244431,-29.12631,-46.11176,175.8542,172.7158,10,-0.2651212,0.05281182,-0.05636341,1.536048,-0.1515569,0.2769431,-0.4451486,-0.03549673,-0.03059783,-0.1047603,0.02588848,-0.07740481,1
2013-09-19 16:57:02.474,346,6.92,51.03958,13.79294,103,0.551609,-1,3,5,1379602621,-0.03785706,-0.2143402,-0.9112091,-6.840836,-28.85724,-46.11176,177.8156,174.6772,10,-0.03341921,0.1760235,0.007115168,1.534495,-0.1508771,0.2722777,-0.2741321,0.04820079,-0.06050866,0.006782973,0.01944467,-0.2224026,1
2013-09-19 16:57:02.507,347,6.94,51.03958,13.79294,103,0.551609,-1,3,5,1379602621,-0.03785706,-0.2143402,-0.9112091,-7.17717,-28.9245,-46.60229,179.3755,176.2372,10,0.2771658,0.3552029,0.1810201,1.533935,-0.1489881,0.2707308,-0.04243019,0.1714125,0.002969931,0.0493876,0.02874242,-0.1552533,1
2013-09-19 16:57:02.513,348,6.96,51.03958,13.79294,103,0.551609,-1,3,5,1379602621,-0.04023743,-0.2253418,-0.7268677,-7.17717,-28.9245,-46.60229,179.3755,176.2372,10,0.3886676,0.4013528,0.2194349,1.537042,-0.1396708,0.2686318,0.2681379,0.350583,0.1768784,0.09636708,0.05107239,0.04353695,1
2013-09-19 16:57:02.534,349,6.98,51.03958,13.79294,103,0.551609,-1,3,5,1379602621,-0.04325867,-0.2176361,-0.5406952,-6.840836,-29.39536,-45.83142,178.2955,175.1571,10,0.3553826,0.4330976,0.2261325,1.544577,-0.1306754,0.2780731,0.3929595,0.4214149,0.2358286,0.08293997,0.05354074,0.3306919,1
2013-09-19 16:57:02.566,350,7,51.03958,13.79294,103,0.551609,-1,3,5,1379602621,-0.03834534,-0.2356567,-0.4044342,-7.109909,-29.39536,-46.11176,176.7104,173.572,10,0.2501481,0.409596,0.1719715,1.544577,-0.1306754,0.2780731,0.3929595,0.4214149,0.2358286,0.08293997,0.05354074,0.3306919,1
2013-09-19 16:57:02.573,351,7.02,51.03958,13.79294,103,0.551609,-1,3,5,1379602621,-0.01591492,-0.262085,-0.4463501,-6.773575,-29.32809,-46.32199,176.4455,173.3072,10,-0.01469026,0.244896,0.105935,1.553883,-0.1163145,0.2880005,0.106274,0.3552074,0.1279671,0.07866465,0.04157349,0.5460851,1
2013-09-19 16:57:02.594,352,7.04,51.03958,13.79294,103,0.551609,-1,3,5,1379602621,-0.002120972,-0.2831573,-0.57724,-6.773575,-29.32809,-46.32199,176.4455,173.3072,10,-0.09664559,0.1503583,0.06811407,1.555466,-0.1128872,0.2880593,-0.02371805,0.2402763,0.1017933,0.09209125,0.02200708,0.5063442,1
2013-09-19 16:57:02.625,353,7.06,51.03958,13.79294,103,0.551609,-1,3,5,1379602621,-0.03421021,-0.2910004,-0.684021,-6.773575,-29.86621,-46.46216,174.7044,171.566,10,-0.1690497,0.1490638,0.05282726,1.556394,-0.110779,0.286783,-0.1056734,0.1457386,0.06397244,0.1023754,0.011811,0.4454517,1
2013-09-19 16:57:02.633,354,7.08,51.03958,13.79294,103,0.551609,-1,3,5,1379602621,-0.03121948,-0.3046417,-0.8788452,-5.899124,-30.06801,-45.83142,176.1336,172.9952,10,-0.2593567,0.1861819,-0.02684786,1.557009,-0.1067422,0.281219,-0.2662909,0.1681441,0.01135665,0.06814432,-0.01347337,0.2712289,1
2013-09-19 16:57:02.654,355,7.1,51.03958,13.79294,103,0.551609,-1,3,5,1379602621,-0.005905151,-0.303009,-1.036621,-6.100922,-29.73167,-46.8826,175.236,172.0976,10,-0.1736589,0.216866,0.01136238,1.556321,-0.1041459,0.2774157,-0.2683844,0.1815622,-0.03098946,0.05902849,-0.0245756,0.1701326,1
2013-09-19 16:57:02.685,356,7.12,51.03958,13.79294,103,0.551609,-1,3,5,1379602621,-0.005905151,-0.303009,-1.036621,-6.100922,-29.73167,-46.8826,175.236,172.0976,10,-0.02333568,0.1903657,0.1157932,1.555893,-0.1012006,0.2744454,-0.1826866,0.2122463,0.007220784,0.06602757,-0.03362861,0.07880551,1
2013-09-19 16:57:02.693,357,7.14,51.03958,13.79294,103,0.551609,-1,3,5,1379602621,-0.1217804,-0.3903503,-1.040512,-5.562805,-29.59714,-47.02274,176.1409,173.0026,10,0.2121621,0.340765,0.3022954,1.559608,-0.09673798,0.2739744,0.1288405,0.2230082,0.2303415,0.05111466,-0.05188898,-0.124409,1
2013-09-19 16:57:02.714,358,7.16,51.03958,13.79294,103,0.551609,-1,3,5,1379602621,-0.1141357,-0.4199219,-1.075943,-5.293732,-29.8662,-47.30307,175.1843,172.0459,10,0.2092661,0.4622062,0.339022,1.567969,-0.08762576,0.2817883,0.1981102,0.4520324,0.2986685,-0.0377183,-0.1122765,-0.08363774,1
2013-09-19 16:57:02.746,359,7.18,51.03958,13.79294,103,0.551609,-1,3,5,1379602621,-0.1141357,-0.4199219,-1.075943,-4.755615,-29.59714,-47.58337,175.7831,172.6447,10,0.265266,0.3647199,0.4114011,1.567969,-0.08762576,0.2817883,0.1981102,0.4520324,0.2986685,-0.0377183,-0.1122765,-0.08363774,1
2013-09-19 16:57:02.753,360,7.2,51.03958,13.79294,103,0.551609,-1,3,5,1379602621,-0.1334686,-0.4232635,-1.096588,-4.755615,-29.59714,-47.58337,175.7831,172.6447,10,0.3323532,0.2152095,0.4866029,1.585205,-0.07650383,0.2908734,0.3309472,0.2677183,0.4496375,-0.04865323,-0.1412352,-0.1401758,1
2013-09-19 16:57:02.774,361,7.22,51.03958,13.79294,103,0.551609,-1,3,5,1379602621,-0.2184753,-0.4070435,-1.14856,-5.293732,-29.4626,-47.86368,173.8935,170.7551,10,0.2942654,0.2257556,0.4824982,1.592391,-0.07540616,0.294907,0.3233284,0.2106004,0.4824578,-0.06138617,-0.1326127,-0.142478,1
2013-09-19 16:57:02.806,362,7.24,51.03958,13.79294,103,0.551609,-1,3,5,1379602621,-0.2734985,-0.430542,-1.157303,-5.360992,-28.99174,-48.35425,171.5116,168.3732,10,0.2603437,0.3197117,0.4164204,1.599597,-0.07455041,0.2985357,0.2852407,0.2211465,0.4783531,-0.1472884,-0.1129224,-0.1954461,1
2013-09-19 16:57:02.813,363,7.26,51.03958,13.79294,103,0.551609,-1,3,5,1379602621,-0.1808014,-0.4938049,-1.091461,-5.56279,-29.73167,-48.28418,170.6236,167.4852,10,0.1598485,0.7058072,0.2031462,1.611325,-0.06849821,0.3041899,0.1833426,0.4697212,0.2984073,-0.2081962,-0.1310216,-0.2054504,1
2013-09-19 16:57:02.834,364,7.28,51.03958,13.79294,103,0.551609,-1,3,5,1379602621,-0.0430603,-0.4696045,-0.9748993,-5.226456,-29.39536,-48.07391,169.7443,166.6059,10,0.03596573,0.6228188,0.1780731,1.614794,-0.06081662,0.3061709,0.1508239,0.7011982,0.1990011,-0.1228488,-0.1923951,-0.1397293,1
2013-09-19 16:57:02.867,365,7.3,51.03958,13.79294,103,0.551609,-1,3,5,1379602621,-0.1087952,-0.4200439,-1.115417,-5.226456,-29.39536,-48.07391,169.7443,166.6059,10,-0.1457817,0.2577841,0.190109,1.617412,-0.05218207,0.3071921,0.02694111,0.6182098,0.173928,-0.04632214,-0.1927033,-0.04327403,1
2013-09-19 16:57:02.873,366,7.32,51.03958,13.79294,103,0.551609,-1,3,5,1379602621,0.07917786,-0.3275604,-1.509644,-5.159195,-29.73167,-47.86368,168.2886,165.1502,10,-0.4665278,-0.0471028,-0.07255197,1.621434,-0.04782983,0.3018456,-0.3352847,-0.07257104,0.05173336,-0.01584291,-0.1442607,-0.06801575,1
2013-09-19 16:57:02.894,367,7.34,51.03958,13.79294,103,0.551609,-1,3,5,1379602621,0.3128662,-0.2385559,-1.308411,-4.957397,-30.20255,-48.21408,168.0156,164.8773,10,0.1500507,0.5104824,0.2185891,1.619276,-0.04698541,0.2904361,-0.3002375,0.1934186,-0.04469222,0.1241789,-0.04119035,-0.5525818,1
2013-09-19 16:57:02.928,368,7.36,51.03958,13.79294,103,0.551609,-1,3,5,1379602621,0.3128662,-0.2385559,-1.308411,-5.226456,-29.93347,-47.93375,167.5087,164.3703,10,0.3863235,0.539459,0.6061501,1.620847,-0.04173052,0.2903456,0.1410262,0.5058734,0.214444,0.2631015,-0.00360306,-0.5273846,1
2013-09-19 16:57:02.954,369,7.38,51.03958,13.79294,103,0.1994986,351.2109,3,5,1379602622,-0.1165161,-0.2900543,-1.074615,-4.688339,-29.39536,-47.93375,166.5055,163.3671,10,0.09352808,-0.6811341,0.748368,1.652093,-0.03960378,0.3044719,0.3178402,-0.2520882,0.8687966,0.1502601,0.05989074,-0.004018051,1
2013-09-19 16:57:02.991,370,7.4,51.03958,13.79294,103,0.1994986,351.2109,3,5,1379602622,-0.1165161,-0.2900543,-1.074615,-5.159195,-29.73167,-48.14401,165.3216,162.1832,10,-0.151544,-0.8596908,0.5353556,1.663694,-0.05080264,0.3062472,0.08450369,-0.685743,0.7442229,0.07344246,0.04267828,0.01353609,1
2013-09-19 16:57:03.014,371,7.42,51.03958,13.79294,103,0.1994986,351.2109,3,5,1379602622,-0.01638794,-0.1964874,-1.382782,-5.697327,-29.05902,-47.44324,166.9183,163.7799,10,-0.2401814,-0.2797142,0.2137179,1.681334,-0.0887472,0.2954274,-0.341378,-0.6006939,0.236829,0.006818655,0.05250125,-0.4106736,1
2013-09-19 16:57:03.047,372,7.44,51.03958,13.79294,103,0.1994986,351.2109,3,5,1379602622,0.0587616,-0.1771545,-1.268433,-5.697327,-29.05902,-47.44324,166.9183,163.7799,10,-0.1199277,-0.07592379,0.2199838,1.683956,-0.09482732,0.2912265,-0.2492057,-0.2843231,0.2095729,0.0380097,0.07132228,-0.4462677,1
2013-09-19 16:57:03.053,373,7.46,51.03958,13.79294,103,0.1994986,351.2109,3,5,1379602622,0.1075134,-0.186554,-1.11203,-4.890137,-29.32809,-46.8826,174.0442,170.9058,10,0.2704096,-0.001998969,0.423118,1.690449,-0.09893475,0.2878703,0.03258019,0.0008948276,0.2932481,0.1534706,0.1067563,-0.3142708,1
2013-09-19 16:57:03.074,374,7.48,51.03958,13.79294,103,0.1994986,351.2109,3,5,1379602622,0.1028442,-0.1825562,-0.8718262,-5.56279,-29.32809,-47.16293,173.6869,170.5486,10,0.5878577,0.02155616,0.6703784,1.704031,-0.1031392,0.2947241,0.4704979,-0.01302017,0.5468868,0.2060306,0.1039219,-0.1602327,1
2013-09-19 16:57:03.108,375,7.5,51.03958,13.79294,103,0.1994986,351.2109,3,5,1379602622,0.04606628,-0.183197,-0.6104584,-6.168182,-29.39536,-46.95267,172.3732,169.2348,10,0.6484858,0.04925223,0.7626473,1.704031,-0.1031392,0.2947241,0.4704979,-0.01302017,0.5468868,0.2060306,0.1039219,-0.1602327,1
2013-09-19 16:57:03.113,376,7.52,51.03958,13.79294,103,0.1994986,351.2109,3,5,1379602622,0.008804321,-0.1941986,-0.5310516,-6.168182,-29.39536,-46.95267,172.3732,169.2348,10,0.5847239,0.1212521,0.8738071,1.73804,-0.1119029,0.3161879,0.6216907,0.08184619,0.8172515,0.1522,0.1277487,0.3340248,1
2013-09-19 16:57:03.134,377,7.54,51.03958,13.79294,103,0.1994986,351.2109,3,5,1379602622,-0.03291321,-0.2143707,-0.5009308,-6.168182,-30.06802,-46.53223,172.6988,169.5604,10,0.5735506,0.08439425,0.8895768,1.751388,-0.1146495,0.3229491,0.5756998,0.1166433,0.8696623,0.1372626,0.1302156,0.3843692,1
2013-09-19 16:57:03.164,378,7.56,51.03958,13.79294,103,0.1994986,351.2109,3,5,1379602622,-0.03291321,-0.2143707,-0.5009308,-6.504517,-30.80795,-46.18182,172.4587,169.3203,10,0.5881352,-0.02110076,0.9192875,1.765113,-0.1177184,0.329327,0.5645266,0.07978547,0.8854319,0.1028801,0.1162683,0.4315173,1
2013-09-19 16:57:03.173,379,7.58,51.03958,13.79294,103,0.1994986,351.2109,3,5,1379602622,-0.131897,-0.2549591,-0.4525757,-7.109894,-31.41333,-46.25189,171.1867,168.0483,10,0.5865042,-0.2605093,0.8505614,1.793635,-0.1285453,0.3422661,0.5989623,-0.1627635,0.9088699,0.06411544,0.1071375,0.4357656,1
2013-09-19 16:57:03.194,380,7.6,51.03958,13.79294,103,0.1994986,351.2109,3,5,1379602622,-0.1347198,-0.2609863,-0.4709625,-7.109894,-31.41333,-46.25189,171.1867,168.0483,10,0.4929706,-0.2595914,0.7227614,1.807513,-0.1364869,0.3488377,0.5774803,-0.2651181,0.8464167,0.02062975,0.09505588,0.4721533,1
2013-09-19 16:57:03.226,381,7.62,51.03958,13.79294,103,0.1994986,351.2109,3,5,1379602622,-0.1347198,-0.2609863,-0.4709625,-7.378952,-32.08598,-45.55112,171.0548,167.9164,10,0.3221871,-0.1924283,0.5647656,1.819788,-0.1445132,0.354562,0.4839466,-0.2642001,0.7186166,0.00315607,0.09222055,0.4754475,1
2013-09-19 16:57:03.233,382,7.64,51.03958,13.79294,103,0.1994986,351.2109,3,5,1379602622,-0.08267212,-0.2736206,-0.602066,-7.715286,-32.15324,-45.20071,172.2785,169.1401,10,0.09180076,-0.166205,0.3387272,1.836736,-0.1556303,0.3602383,0.1533498,-0.1334905,0.4136311,0.01033381,0.09151087,0.4535401,1
2013-09-19 16:57:03.254,383,7.66,51.03958,13.79294,103,0.1994986,351.2109,3,5,1379602622,-0.07957458,-0.276001,-0.7033234,-7.849808,-31.48061,-45.34085,172.7714,169.633,10,0.08933814,-0.3542729,0.2202187,1.846745,-0.1647231,0.3613868,0.09443381,-0.2849503,0.2798068,0.08206771,0.0808515,0.2697456,1
2013-09-19 16:57:03.287,384,7.68,51.03958,13.79294,103,0.1994986,351.2109,3,5,1379602622,-0.1053619,-0.2716675,-0.7453613,-8.724258,-30.87521,-44.99048,171.385,168.2466,10,-0.009290437,-0.3594884,0.1129162,1.850457,-0.1707443,0.3620501,0.08031428,-0.3588815,0.2160739,0.07932612,0.0781912,0.2182505,1
2013-09-19 16:57:03.314,385,7.7,51.03958,13.79294,103,0.1994986,351.2109,3,5,1379602622,-0.117569,-0.2592926,-1.0159,-9.195129,-30.80795,-44.92041,170.835,167.6966,10,-0.535465,-0.1216804,-0.331245,1.849934,-0.1838645,0.3562731,-0.3724563,-0.2289411,-0.1759788,0.05156766,0.07942037,0.07728997,1
2013-09-19 16:57:03.346,386,7.72,51.03958,13.79294,103,0.1994986,351.2109,3,5,1379602622,-0.06005859,-0.2746735,-1.11795,-9.800507,-30.74069,-45.27078,170.7209,167.5825,10,-0.6734647,0.009072591,-0.4493861,1.844542,-0.1842427,0.350358,-0.5444887,-0.126289,-0.3353897,0.04022137,0.08595563,-0.03686699,1
2013-09-19 16:57:03.353,387,7.74,51.03958,13.79294,103,0.1994986,351.2109,3,5,1379602622,-0.02606201,-0.314743,-1.168228,-10.06958,-30.47162,-45.83142,169.9903,166.8519,10,-0.7371534,0.09434861,-0.4855702,1.827815,-0.1782581,0.3339485,-0.7436119,0.0910503,-0.5017648,0.1074613,0.05310246,-0.1881655,1
2013-09-19 16:57:03.374,388,7.76,51.03958,13.79294,103,0.1994986,351.2109,3,5,1379602622,-0.02354431,-0.3641205,-1.217194,-10.06958,-30.47162,-45.83142,169.9903,166.8519,10,-0.7372666,0.03739957,-0.4671533,1.818755,-0.1739207,0.3249395,-0.7461771,0.08974005,-0.4897148,0.1245458,0.03195902,-0.2149726,1
2013-09-19 16:57:03.407,389,7.78,51.03958,13.79294,103,0.1994986,351.2109,3,5,1379602622,-0.02354431,-0.3641205,-1.217194,-11.07857,-30.94247,-46.60226,167.2968,164.1584,10,-0.737599,0.02282595,-0.4284486,1.810009,-0.1704215,0.3158947,-0.7462903,0.03279101,-0.471298,0.1351439,-0.004075989,-0.2314792,1
2013-09-19 16:57:03.413,390,7.8,51.03958,13.79294,103,0.1994986,351.2109,3,5,1379602622,-0.1276245,-0.3505707,-1.144089,-11.21309,-30.6734,-48.56445,166.4789,163.3405,10,-1.070662,0.09161247,-0.45065,1.801721,-0.1677643,0.3067448,-0.7466226,0.0182174,-0.4325932,0.1379134,-0.02757184,-0.2474405,1
2013-09-19 16:57:03.434,391,7.82,51.03958,13.79294,103,0.1994986,351.2109,3,5,1379602622,-0.1912689,-0.335144,-1.436905,-11.75122,-30.53886,-49.12506,165.0675,161.9291,10,-1.525254,0.007631554,-0.6170248,1.775349,-0.1575043,0.2682218,-1.396204,0.000205422,-0.5242477,-0.02726723,-0.06620531,-0.3144766,1
2013-09-19 16:57:03.468,392,7.84,51.03958,13.79294,103,0.1994986,351.2109,3,5,1379602622,-0.1221313,-0.3468475,-1.857208,-11.75122,-30.53886,-49.12506,165.0675,161.9291,10,-1.294763,0.2492415,-0.5674845,1.775349,-0.1575043,0.2682218,-1.396204,0.000205422,-0.5242477,-0.02726723,-0.06620531,-0.3144766,1
2013-09-19 16:57:03.473,393,7.86,51.03958,13.79294,103,0.1994986,351.2109,3,5,1379602622,0.05419922,-0.3544159,-1.925034,-11.54942,-29.52988,-50.45654,164.9086,161.7702,10,-1.294763,0.2492415,-0.5674845,1.763685,-0.1546749,0.248929,-1.534277,0.003023055,-0.6211694,-0.0419586,-0.08877796,-0.4792984,1
2013-09-19 16:57:03.493,394,7.88,51.03958,13.79294,103,0.1994986,351.2109,3,5,1379602622,-0.01295471,-0.332962,-1.318451,-11.48216,-28.9245,-51.50772,165.8955,162.7571,10,0.7384498,0.4228892,0.5636392,1.743799,-0.1295433,0.2178862,0.1105217,0.7996836,0.1509593,0.1803262,-0.1382496,-0.9568579,1
2013-09-19 16:57:03.527,395,7.9,51.03958,13.79294,103,0.1994986,351.2109,3,5,1379602622,-0.223114,-0.2802734,-0.9600525,-10.80951,-28.25185,-52.06836,166.2968,163.1584,10,1.066423,-0.03457502,0.7822567,1.750908,-0.1232991,0.2244254,0.729357,0.4182785,0.559518,0.2283011,-0.1076845,-0.7914819,1
2013-09-19 16:57:03.533,396,7.92,51.03958,13.79294,103,0.1994986,351.2109,3,5,1379602622,-0.4223785,-0.2784576,-0.7816772,-10.80951,-28.65544,-52.06836,163.9161,160.7777,10,1.068882,-0.4145746,0.8205737,1.762781,-0.124526,0.2366042,1.05733,-0.03918574,0.7781356,0.009644758,-0.05081449,-0.1465941,1
2013-09-19 16:57:03.554,397,7.94,51.03958,13.79294,103,0.1994986,351.2109,3,5,1379602622,-0.4172363,-0.3036499,-0.930069,-10.80951,-28.65544,-52.06836,163.9161,160.7777,10,0.2725671,-0.2827177,0.3474171,1.78817,-0.1424629,0.2609011,0.7664522,-0.5142126,0.6302097,-0.2071991,-0.01075604,0.1173656,1
2013-09-19 16:57:03.588,398,7.96,51.03958,13.79294,103,0.1994986,351.2109,3,5,1379602622,-0.4172363,-0.3036499,-0.930069,-10.20412,-28.45364,-52.41873,165.1993,162.0609,10,-0.07805006,0.03221147,0.06293103,1.795383,-0.1496008,0.2659298,0.2634754,-0.2873288,0.3432961,-0.2785743,-0.01565119,0.1723946,1
2013-09-19 16:57:03.593,399,7.98,51.03958,13.79294,103,0.1994986,351.2109,3,5,1379602622,-0.2543945,-0.2904205,-1.140137,-10.27138,-29.05905,-52.2085,166.8087,163.6704,10,-0.1089494,0.2226911,-0.07606894,1.795383,-0.1496008,0.2659298,0.2634754,-0.2873288,0.3432961,-0.2785743,-0.01565119,0.1723946,1
2013-09-19 16:57:03.614,400,8,51.03958,13.79294,103,0.1994986,351.2109,3,5,1379602622,-0.100174,-0.2532196,-0.8235321,-10.20412,-29.52991,-51.99829,167.6395,164.5011,10,0.5157509,0.3953734,0.03257046,1.794218,-0.1360543,0.2643442,0.3004162,0.2909421,0.001341308,0.01819157,-0.01182554,-0.0806281,1
2013-09-19 16:57:03.649,401,8.02,51.03958,13.79294,103,0.1994986,351.2109,3,5,1379602622,-0.100174,-0.2532196,-0.8235321,-10.20412,-29.52991,-51.99829,167.6395,164.5011,10,0.6730649,0.4775578,0.03146392,1.794218,-0.1360543,0.2643442,0.3004162,0.2909421,0.001341308,0.01819157,-0.01182554,-0.0806281,1
2013-09-19 16:57:03.674,402,8.04,51.03958,13.79294,103,0.1994986,351.2109,3,5,1379602622,-0.04754639,-0.2211304,-0.4288177,-9.531448,-30.87521,-50.73688,166.8406,163.7022,10,0.6683496,0.3286024,0.02377404,1.800094,-0.1138901,0.2987417,0.7317054,0.3952011,0.02128017,0.04035795,0.06622952,0.359123,1
2013-09-19 16:57:03.709,403,8.059999,51.03958,13.79294,103,0.1994986,351.2109,3,5,1379602622,-0.03401184,-0.2214966,-0.3339539,-9.26239,-31.54788,-50.45657,166.2423,163.1039,10,0.3554678,0.3281784,-0.04852386,1.801477,-0.1096272,0.3081337,0.6592424,0.3239954,0.01965246,0.05670837,0.08215038,0.5183632,1
2013-09-19 16:57:03.734,404,8.08,51.03958,13.79294,103,0.1994986,351.2109,3,5,1379602622,0.004104614,-0.2633667,-0.5762329,-8.993332,-32.35507,-49.7558,164.919,161.7806,10,0.03103994,0.2230057,-0.05640016,1.801755,-0.09677334,0.3245944,0.1374533,0.3063616,-0.06333373,0.09972495,0.07716417,0.5572372,1
2013-09-19 16:57:03.767,405,8.099999,51.03958,13.79294,103,0.1994986,351.2109,3,5,1379602622,-0.01029968,-0.2739868,-0.6971283,-8.455215,-33.43132,-50.31641,164.6775,161.5392,10,-0.05220968,0.06564879,-0.08061362,1.80092,-0.09300753,0.3254416,0.02193289,0.2183987,-0.06052169,0.09887806,0.06975777,0.4772889,1
2013-09-19 16:57:03.773,406,8.12,51.03958,13.79294,103,0.1994986,351.2109,3,5,1379602622,0.01365662,-0.3019867,-0.8740845,-8.455215,-33.43132,-50.31641,164.6775,161.5392,10,-0.06939239,0.01945066,-0.07934596,1.798673,-0.08923124,0.3246562,-0.0613167,0.06104189,-0.08473514,0.07649256,0.04726972,0.3028918,1
