time,timestamp,recordtime,lat,long,alt,speed,course,verticalAccuracy,horizontalAccuracy,locTimeStamp,accelerationX,accelerationY,accelerationZ,HeadingX,HeadingY,HeadingZ,TrueHeading,MagneticHeading,HeadingAccuracy,RotationX,RotationY,RotationZ,motionYaw,motionRoll,motionPitch,motionRotationRateX,motionRotationRateY,motionRotationRateZ,motionUserAccelerationX,motionUserAccelerationY,motionUserAccelerationZ,Event
2013-09-19 17:00:39.090,1,0.02,51.03943,13.79338,114,0,143.0859,6,5,1379602838,0.09793091,-0.424057,-0.9365387,-9.15123,-30.30623,-28.02975,149.9521,146.8137,10,-0.01123508,0.1641509,0.1402144,2.705538,0.06803225,0.3893834,-0.006273455,0.2477241,0.0470115,0.02371784,-0.04932174,0.02969261,3
2013-09-19 17:00:39.130,2,0.04,51.03943,13.79338,114,0,143.0859,6,5,1379602838,0.01019287,-0.3662872,-0.9346924,-9.8909,-30.64244,-27.67947,149.2744,146.136,10,0.1073046,-0.03966193,0.104022,2.705538,0.06803225,0.3893834,-0.006273455,0.2477241,0.0470115,0.02371784,-0.04932174,0.02969261,3
2013-09-19 17:00:39.178,3,0.06,51.03943,13.79338,114,0,143.0859,6,5,1379602838,0.08338928,-0.3629913,-1.094406,-9.756409,-30.50797,-26.979,149.9283,146.7899,10,0.1311791,0.1872754,-0.1142376,2.703681,0.07766003,0.3768769,-0.1743352,0.3045327,-0.1398675,0.02310819,-0.004372437,-0.1101544,3
2013-09-19 17:00:39.186,4,0.08,51.03943,13.79338,114,0,143.0859,6,5,1379602838,0.09162903,-0.3926239,-0.9290771,-8.882248,-30.84416,-27.18915,151.5094,148.371,10,0.02089143,-0.005681321,-0.136144,2.698093,0.08342812,0.3827254,0.1564324,-0.04464871,-0.1077109,-0.006684696,-0.01172751,-0.03308047,3
2013-09-19 17:00:39.242,5,0.09999999,51.03943,13.79338,114,0,143.0859,6,5,1379602838,0.1082153,-0.3943634,-0.9306641,-8.882248,-30.84416,-27.18915,151.5094,148.371,10,-0.03558356,-0.0330232,-0.142661,2.696091,0.0839111,0.3832819,0.004195552,-0.01062414,-0.1361534,-0.0117524,-0.0238761,0.01005558,3
2013-09-19 17:00:39.291,6,0.12,51.03943,13.79338,114,0,143.0859,6,5,1379602838,0.1103516,-0.4043121,-0.9633789,-7.873596,-29.97003,-27.53934,152.0746,148.9362,10,0.01353711,0.008349809,-0.002309493,2.687678,0.08688824,0.3810249,-0.0421155,0.00369195,-0.04500732,0.03242056,-0.03822317,-0.02210202,3
2013-09-19 17:00:39.306,7,0.14,51.03943,13.79338,114,0,143.0859,6,5,1379602838,0.09739685,-0.4044037,-0.941452,-7.201172,-29.97003,-27.39926,153.543,150.4047,10,0.04751159,0.04230485,0.04496348,2.687667,0.08765931,0.3823858,0.05931795,0.0104828,0.02368728,0.01721027,-0.02731664,-0.01723728,3
2013-09-19 17:00:39.354,8,0.16,51.03943,13.79338,114,0,143.0859,6,5,1379602838,0.08283997,-0.3752899,-0.9833679,-7.201172,-30.23901,-26.97894,154.0583,150.92,10,0.005713546,0.0279536,0.0457824,2.688182,0.08787649,0.3829993,0.03082537,0.03737116,0.04495129,0.01599206,-0.03069952,-0.01748317,3
2013-09-19 17:00:39.365,9,0.18,51.03943,13.79338,114,0,143.0859,6,5,1379602838,0.07350159,-0.3692627,-0.9266357,-7.73912,-31.04591,-27.53934,153.4132,150.2748,10,0.0906508,-0.03673777,0.0410481,2.690148,0.08726071,0.3835532,0.04190231,-0.04070654,0.05153647,0.002022203,-0.00107209,-0.05955543,3
2013-09-19 17:00:39.418,10,0.2,51.03943,13.79338,114,0,143.0859,6,5,1379602838,0.06352234,-0.3713074,-0.9113922,-8.142578,-30.91144,-27.67944,152.4961,149.3578,10,0.07468116,0.01175679,0.03456943,2.690777,0.08638181,0.3844882,0.07396466,-0.04167007,0.04103536,-0.00130125,-0.004126645,-0.04445292,3
2013-09-19 17:00:39.426,11,0.22,51.03943,13.79338,114,0,143.0859,6,5,1379602838,0.06878662,-0.3812866,-0.9614258,-8.277069,-30.64246,-27.95966,152.4762,149.3378,10,0.01692759,0.02934218,0.02899996,2.692299,0.08547059,0.3869704,0.0321679,0.01737725,0.03421073,-0.008604441,0.006138265,0.003715582,3
2013-09-19 17:00:39.474,12,0.24,51.03943,13.79338,114,0,143.0859,6,5,1379602838,0.06402588,-0.3833771,-0.9750214,-8.478806,-30.30626,-28.45001,152.4318,149.2934,10,0.04423857,0.02262675,0.0003701794,2.69317,0.08533144,0.3872009,0.006526479,-0.0002765962,0.0159139,-0.001510631,-0.0005453323,-0.01937035,3
2013-09-19 17:00:39.487,13,0.26,51.03943,13.79338,114,0,143.0859,6,5,1379602838,0.08636475,-0.3810272,-0.9610748,-8.478806,-30.17177,-28.30991,152.3869,149.2485,10,-0.009607087,0.009688847,-0.0267179,2.693056,0.08539315,0.3879222,0.01421326,9.232862e-05,-0.01900834,0.002239867,-0.01463274,-0.03399011,3
2013-09-19 17:00:39.533,14,0.28,51.03943,13.79338,114,0,143.0859,6,5,1379602838,0.09667969,-0.4005432,-0.9569092,-8.613281,-29.63383,-28.73019,152.315,149.1766,10,0.003935353,-0.01273497,-0.02644412,2.69279,0.08559746,0.3876601,-0.0262963,0.004752075,-0.02672911,-0.006501961,-0.005170809,-0.03796633,3
2013-09-19 17:00:39.546,15,0.3,51.03943,13.79338,114,0,143.0859,6,5,1379602838,0.08879089,-0.3956757,-0.9416656,-8.478806,-30.17177,-28.02972,152.2068,149.0684,10,0.06760195,-0.02108691,0.004490889,2.691865,0.08575518,0.387951,0.06449515,0.003687121,-0.0051885,0.01739457,-0.02225068,-0.03462471,3
2013-09-19 17:00:39.589,16,0.32,51.03943,13.79338,114,0,143.0859,6,5,1379602838,0.07800293,-0.3858948,-0.9216766,-8.478806,-30.17177,-28.02972,152.2068,149.0684,10,0.02818557,-0.008286959,0.01122389,2.691909,0.08555821,0.3887181,0.05091121,-0.02602309,0.004479308,0.01461033,-0.02157129,-0.030153,3
2013-09-19 17:00:39.607,17,0.34,51.03943,13.79338,114,0,143.0859,6,5,1379602838,0.07873535,-0.373291,-0.9641571,-8.882248,-30.84416,-28.02975,152.1137,148.9754,10,-0.03218617,0.01976678,0.02246802,2.692197,0.08500505,0.3899881,-0.02292489,-0.0003213217,0.009549943,0.002359165,-0.005656328,0.003834079,3
2013-09-19 17:00:39.650,18,0.36,51.03943,13.79338,114,0,143.0859,6,5,1379602838,0.07672119,-0.3772583,-0.9651489,-8.882248,-30.84416,-28.16983,152.0742,148.9358,10,-0.03059919,-0.04612701,-0.01095438,2.692602,0.08505719,0.3882083,-0.05227103,-0.01326764,-0.0076072,0.0001022687,0.005239649,-0.04191453,3
2013-09-19 17:00:39.666,19,0.38,51.03943,13.79338,114,0,143.0859,6,5,1379602838,0.08444214,-0.385025,-0.9707489,-9.15123,-30.97864,-27.88965,152.0334,148.895,10,0.04431793,0.04283988,-0.01060364,2.692211,0.08391487,0.3861938,0.01294215,0.009539898,-0.01908836,-0.003058328,-0.008481813,-0.04015177,3
2013-09-19 17:00:39.712,20,0.4,51.03943,13.79338,114,0,143.0859,6,5,1379602838,0.08537292,-0.3869781,-0.9687958,-9.958145,-30.57521,-28.59015,151.9431,148.8047,10,0.02839809,0.02035987,-0.01548708,2.692062,0.08421187,0.38679,0.02759582,0.03789288,-0.01062905,0.002301648,-0.01667283,-0.03251003,3
2013-09-19 17:00:39.726,21,0.42,51.03943,13.79338,114,0,143.0859,6,5,1379602838,0.08544922,-0.4015198,-0.916626,-9.15123,-30.70969,-28.30991,151.8433,148.7049,10,0.0641465,-0.05398947,-0.01830364,2.691097,0.08475094,0.3864005,0.02896763,-0.0187645,-0.02116938,0.006964485,-0.01012138,-0.04584882,3
2013-09-19 17:00:39.771,22,0.44,51.03943,13.79338,113,0,143.0859,8,5,1379602839,0.08544922,-0.4015198,-0.916626,-8.613281,-30.7097,-27.88962,151.8253,148.6869,10,0.03319897,-0.03184075,0.002958506,2.690544,0.08490843,0.3866406,0.04741978,-0.05893299,-0.01833082,0.02226871,-0.01258453,-0.03693342,3
2013-09-19 17:00:39.787,23,0.46,51.03943,13.79338,113,0,143.0859,8,5,1379602839,0.07319641,-0.3879852,-0.9313965,-8.277069,-30.50797,-27.95966,151.8154,148.6771,10,0.00469968,0.06607009,0.01779817,2.690033,0.08395819,0.3890583,0.001656634,-0.006129609,0.00742624,0.006895434,-0.01823524,0.01113409,3
2013-09-19 17:00:39.828,24,0.48,51.03943,13.79338,113,0,143.0859,8,5,1379602839,0.07824707,-0.3889618,-0.9486694,-7.73912,-30.77693,-27.39923,151.8429,148.7045,10,-0.01361088,0.05194363,0.004392884,2.690407,0.08492735,0.3891083,-0.01202019,0.06113015,0.01777023,-0.005287995,-0.008621672,-0.009483533,3
2013-09-19 17:00:39.846,25,0.5,51.03943,13.79338,113,0,143.0859,8,5,1379602839,0.07992554,-0.3852386,-1.001724,-7.806366,-30.70969,-27.18906,151.8674,148.729,10,0.01591292,-0.03316701,0.01122256,2.691024,0.0862313,0.3878445,-0.02539665,0.0150744,0.005801774,0.003997281,-0.009928674,-0.07450889,3
2013-09-19 17:00:39.890,26,0.52,51.03943,13.79338,113,0,143.0859,8,5,1379602839,0.07725525,-0.3859863,-0.940979,-7.873611,-30.77693,-26.69873,151.8951,148.7567,10,0.04807458,-0.06243169,-0.007572698,2.691134,0.08584239,0.387723,-0.0008068503,-0.03810839,0.01119521,0.007403781,-0.007080978,-0.08116129,3
2013-09-19 17:00:39.906,27,0.54,51.03943,13.79338,113,0,143.0859,8,5,1379602839,0.08401489,-0.381897,-0.928299,-7.940842,-31.3821,-26.48856,151.9714,148.8331,10,0.03820597,-0.01041536,-0.009174324,2.690907,0.08394035,0.3882569,0.01898083,-0.01423109,-0.004406911,-0.0003920193,-0.008387228,-0.01671439,3
2013-09-19 17:00:39.949,28,0.56,51.03943,13.79338,113,0,143.0859,8,5,1379602839,0.08866882,-0.3966217,-0.9329834,-7.940842,-31.3821,-26.48856,151.9714,148.8331,10,0.0147896,-0.005826198,-0.003424825,2.690738,0.08386818,0.388647,0.02148414,-0.0153571,-0.00920172,0.002525055,-0.005966317,-0.00619011,3
2013-09-19 17:00:39.967,29,0.58,51.03943,13.79338,113,0,143.0859,8,5,1379602839,0.08303833,-0.3928223,-0.9466095,-8.142578,-30.10452,-26.55859,151.9898,148.8514,10,0.007338607,0.005903163,0.003670635,2.69057,0.08385108,0.389015,-0.003169939,0.001055959,-0.003531154,0.01117373,-0.01734445,-0.01095125,3
2013-09-19 17:00:40.005,30,0.6,51.03943,13.79338,113,0,143.0859,8,5,1379602839,0.07943726,-0.3860474,-0.9611969,-8.209824,-30.03728,-27.18903,151.9802,148.8418,10,4.687164e-05,-0.004683435,-0.004802745,2.690789,0.08377172,0.3886571,-0.02045245,-0.003818668,0.004752608,0.005605049,-0.01387628,-0.02443596,3
2013-09-19 17:00:40.026,31,0.62,51.03943,13.79338,113,0,143.0859,8,5,1379602839,0.08679199,-0.40065,-0.9465027,-8.344315,-30.17175,-27.32913,151.9666,148.8283,10,0.01837581,-6.924219e-06,0.007447796,2.690724,0.08357676,0.3882906,0.009188038,-1.185463e-05,-0.01063023,0.003987974,-0.009347838,-0.03014196,3
2013-09-19 17:00:40.065,32,0.64,51.03943,13.79338,113,0,143.0859,8,5,1379602839,0.07815552,-0.3938904,-0.9486542,-8.142578,-29.70108,-27.39917,151.9505,148.8121,10,0.001195227,-0.02370959,0.006178001,2.690641,0.08375658,0.3886573,0.001655892,-0.004946079,0.007419548,0.009372676,-0.02170387,-0.02432805,3
2013-09-19 17:00:40.086,33,0.66,51.03943,13.79338,113,0,143.0859,8,5,1379602839,0.08297729,-0.392807,-0.9417877,-7.940826,-30.17175,-27.60931,151.9508,148.8124,10,0.03801449,0.01186545,0.01001642,2.690996,0.08303208,0.3884952,0.01146366,0.01518175,0.008626542,-0.007267743,-0.009326385,-0.0265456,3
2013-09-19 17:00:40.127,34,0.68,51.03943,13.79338,113,0,143.0859,8,5,1379602839,0.06951904,-0.3821716,-0.9411469,-8.47879,-30.03728,-27.88953,151.9286,148.7902,10,-0.003702593,-0.02133778,0.003696201,2.69119,0.08292036,0.3885411,0.02129387,0.006924671,0.009988768,0.001732612,-0.008185255,-0.03410747,3
2013-09-19 17:00:40.146,35,0.7,51.03943,13.79338,113,0,143.0859,8,5,1379602839,0.07124329,-0.3929749,-0.9401093,-8.277039,-30.64244,-27.95956,151.9242,148.7858,10,0.01228436,0.01068727,7.856325e-05,2.691603,0.08196136,0.3884036,0.01524477,0.01766528,-0.002208603,-0.005214913,-0.001491814,-0.02064631,3
2013-09-19 17:00:40.189,36,0.72,51.03943,13.79338,113,0,143.0859,8,5,1379602839,0.081604,-0.381134,-0.9717865,-8.680496,-31.04587,-28.51999,151.9117,148.7734,10,-0.01589721,0.03910399,-0.01366974,2.691588,0.08186473,0.3883999,-0.004437204,0.005744529,5.162971e-05,-0.005247961,-0.004409683,-0.01483925,3
2013-09-19 17:00:40.206,37,0.74,51.03943,13.79338,113,0,143.0859,8,5,1379602839,0.08267212,-0.4006195,-0.9282379,-8.882233,-30.97862,-28.44995,151.8952,148.7569,10,0.0493039,-0.03756682,-0.01010909,2.691235,0.0822509,0.3865974,-0.004387608,-0.01787411,-0.003440387,0.01136868,-0.009969538,-0.05725003,3
2013-09-19 17:00:40.249,38,0.76,51.03943,13.79338,113,0,143.0859,8,5,1379602839,0.09248352,-0.3985138,-0.9280548,-8.814987,-30.77692,-28.23978,151.8794,148.741,10,0.08605712,-0.01271926,0.002237055,2.690915,0.08206677,0.386699,0.03257874,-0.0425092,-0.01013647,0.0113892,-0.01280516,-0.04956851,3
2013-09-19 17:00:40.266,39,0.78,51.03943,13.79338,113,0,143.0859,8,5,1379602839,0.0896759,-0.3936462,-0.9310455,-9.21843,-30.77692,-27.95959,151.8568,148.7184,10,0.008474179,0.002252235,0.01456776,2.690331,0.08254069,0.3899227,0.002956569,0.002238444,-0.001055321,0.01622512,-0.01839686,-0.00626537,3
2013-09-19 17:00:40.309,40,0.8,51.03943,13.79338,113,0,143.0859,8,5,1379602839,0.07810974,-0.3899078,-0.9380493,-9.016708,-30.17172,-27.88956,151.8303,148.6919,10,-0.008897355,0.0008303736,0.0324887,2.690355,0.08286238,0.3902896,-0.008241777,-0.00268422,0.01453882,0.0168099,-0.01998013,-0.0006153972,3
2013-09-19 17:00:40.327,41,0.82,51.03943,13.79338,113,0,143.0859,8,5,1379602839,0.06391907,-0.3793793,-0.9586334,-8.814987,-29.83553,-26.97891,151.7807,148.6423,10,0.002346511,0.01764158,0.01079353,2.691378,0.08248439,0.3896665,-0.02666526,-0.008648775,0.01315768,-0.001873705,-0.009127659,-0.02587839,3
2013-09-19 17:00:40.368,42,0.84,51.03943,13.79338,113,0,143.0859,8,5,1379602839,0.0783844,-0.3890076,-0.9602356,-8.747742,-30.30621,-26.90884,151.7711,148.6327,10,0.02105309,0.02155243,-0.0191974,2.691952,0.08179749,0.3888982,-0.008056161,0.01882848,-0.008511203,-0.01844565,0.001620918,-0.04041298,3
2013-09-19 17:00:40.386,43,0.86,51.03943,13.79338,113,0,143.0859,8,5,1379602839,0.07543945,-0.3860779,-0.9516296,-8.882217,-30.30621,-27.04895,151.757,148.6186,10,0.02711577,-0.01876889,-0.005630988,2.691477,0.08201107,0.3886654,0.03376366,-0.009411364,-0.007889629,0.004619797,-0.01005384,-0.04560549,3
2013-09-19 17:00:40.429,44,0.88,51.03943,13.79338,113,0,143.0859,8,5,1379602839,0.09185791,-0.3927155,-0.9493408,-8.949463,-30.64243,-27.53931,151.7426,148.6043,10,0.01246279,-0.009240104,-0.01791775,2.691295,0.08190572,0.3888549,0.01039477,-0.02370955,-0.005658624,0.006645447,-0.008856226,-0.04083202,3
2013-09-19 17:00:40.446,45,0.9,51.03943,13.79338,113,0,143.0859,8,5,1379602839,0.08459473,-0.4015503,-0.9262848,-8.747742,-30.70969,-27.60934,151.7337,148.5954,10,0.07878909,0.01223456,-0.01246599,2.690532,0.08141024,0.3885544,0.02754796,-0.03317937,0.001826248,0.01659938,-0.01386448,-0.02694823,3
2013-09-19 17:00:40.487,46,0.92,51.03943,13.79338,113,0,143.0859,8,5,1379602839,0.08840942,-0.3985138,-0.9136658,-8.54599,-30.77692,-28.23981,151.7262,148.5878,10,0.01212005,0.0140567,0.01816516,2.690361,0.08158087,0.3894932,0.06206754,0.007297334,-0.01249504,0.007453057,-0.0179702,-0.01492583,3
2013-09-19 17:00:40.507,47,0.94,51.03943,13.79338,113,0,143.0859,8,5,1379602839,0.06185913,-0.3892822,-0.9663696,-8.277023,-30.50793,-28.23984,151.7113,148.5729,10,-0.004041879,0.01024971,0.03852715,2.690224,0.08297188,0.391544,-0.04887244,-0.004076897,0.02133402,0.01560419,-0.02571731,0.001799045,3
2013-09-19 17:00:40.549,48,0.96,51.03943,13.79338,113,0,143.0859,8,5,1379602839,0.0667572,-0.3852386,-0.9604797,-8.613251,-30.57518,-28.02969,151.6994,148.5611,10,0.01946797,0.009315738,0.02189465,2.691388,0.0825997,0.390858,-0.02075339,0.00531774,0.0384969,-0.01442429,-0.00830038,-0.0449394,3
2013-09-19 17:00:40.566,49,0.98,51.03943,13.79338,113,0,143.0859,8,5,1379602839,0.07565308,-0.3792267,-0.9593658,-8.949463,-30.64241,-27.95963,151.6824,148.544,10,0.02829262,0.0178754,-0.00340352,2.692117,0.08172224,0.3905568,0.009124298,0.007017277,-0.003427316,-0.008894891,-0.01240882,-0.03691548,3
2013-09-19 17:00:40.608,50,1,51.03943,13.79338,113,0,143.0859,8,5,1379602839,0.07052612,-0.3831635,-0.9459381,-9.21843,-30.64241,-27.53934,151.662,148.5237,10,0.02835468,-0.004548146,-0.008108793,2.692137,0.08159597,0.3903339,0.01157599,0.01293807,-0.003432012,-0.0008508568,-0.004619328,-0.03572277,3
2013-09-19 17:00:40.626,51,1.02,51.03943,13.79338,113,0,143.0859,8,5,1379602839,0.07829285,-0.3929596,-0.959259,-9.21843,-30.91139,-27.95966,151.6425,148.5041,10,0.001284443,-0.00230177,-0.006009157,2.691798,0.08110873,0.3897343,-0.02035488,-0.004892398,-0.006105029,-0.004418031,-0.003220771,-0.02396906,3
2013-09-19 17:00:40.668,52,1.04,51.03943,13.79338,113,0,143.0859,8,5,1379602839,0.07829285,-0.3929596,-0.959259,-9.151184,-30.70966,-27.74951,151.6237,148.4853,10,0.03940919,0.007317568,-0.008050203,2.691658,0.08118905,0.3895667,-0.01543571,-0.007240064,-0.006037557,0.006168641,-0.01311097,-0.03428758,3
2013-09-19 17:00:40.686,53,1.06,51.03943,13.79338,113,0,143.0859,8,5,1379602839,0.08267212,-0.3976288,-0.9234467,-8.075287,-31.24759,-27.4693,151.6467,148.5083,10,0.04920989,-0.02820048,-0.0005044027,2.691105,0.08150311,0.3898682,0.0336639,-0.01056387,-0.0114924,0.01171726,-0.01570072,-0.03523408,3
2013-09-19 17:00:40.734,54,1.08,51.03943,13.79338,113,0,143.0859,8,5,1379602839,0.07780457,-0.3947449,-0.9187164,-8.075287,-31.24759,-27.4693,151.6467,148.5083,10,0.002193646,0.03286181,0.02640178,2.690933,0.08119677,0.3910353,0.004006179,-0.00491899,0.005045427,0.007686946,-0.01648305,-0.001977638,3
2013-09-19 17:00:40.746,55,1.1,51.03943,13.79338,113,0,143.0859,8,5,1379602839,0.06770325,-0.3852386,-0.9595032,-7.806305,-31.38206,-27.74954,151.6699,148.5315,10,-0.009938917,-0.01790656,0.01326494,2.691939,0.08159436,0.390098,-0.05759119,-0.01593399,0.0201104,0.003034307,-0.0127263,-0.04712308,3
2013-09-19 17:00:40.793,56,1.12,51.03943,13.79338,113,0,143.0859,8,5,1379602839,0.07052612,-0.3891144,-0.9555664,-7.671829,-31.2476,-27.32922,151.7167,148.5783,10,0.02464489,0.008436361,-0.0070145,2.692266,0.08109689,0.3893647,-0.02678726,-0.02285103,0.01324931,0.0006626935,-0.005531101,-0.04303907,3
2013-09-19 17:00:40.808,57,1.14,51.03943,13.79338,113,0,143.0859,8,5,1379602839,0.06860352,-0.3722992,-0.9296265,-8.008057,-31.31483,-27.39926,151.7369,148.5985,10,0.01217251,-0.04744395,0.01850151,2.692227,0.08102126,0.3891603,0.001631795,-0.003651472,-0.004645076,0.00837081,-0.0095196,-0.03697466,3
2013-09-19 17:00:40.856,58,1.16,51.03943,13.79346,114,0,143.0859,8,5,1379602840,0.05986023,-0.3724365,-0.9336548,-7.402863,-31.2476,-26.76883,151.7752,148.6368,10,0.004953746,0.03320403,-0.007369499,2.692285,0.08066239,0.3889151,-0.004678966,-0.05238912,0.01848591,0.01270732,-0.004787427,-0.03679409,3
2013-09-19 17:00:40.912,59,1.18,51.03943,13.79346,114,0,143.0859,8,5,1379602840,0.09994507,-0.4016113,-0.9867706,-7.335632,-30.91139,-27.11908,151.8394,148.701,10,0.01128594,0.0298804,-0.0278018,2.691704,0.08073436,0.3871294,-0.02893191,0.02489147,-0.03168581,0.003766881,-0.01249808,-0.04401483,3
2013-09-19 17:00:40.926,60,1.2,51.03943,13.79346,114,0,143.0859,8,5,1379602840,0.08969116,-0.4035797,-0.9483643,-7.873566,-30.10449,-27.39926,151.8623,148.7239,10,-0.0221093,-0.06161516,0.003710582,2.690702,0.08171742,0.3868147,0.005333419,-0.05802517,-0.005501048,0.0280574,-0.0291927,-0.05495666,3
2013-09-19 17:00:40.970,61,1.22,51.03943,13.79346,114,0,143.0859,8,5,1379602840,0.0871582,-0.3988037,-0.9735107,-8.478745,-30.03726,-27.88962,151.8484,148.71,10,0.003601393,-0.02494343,0.01224761,2.690659,0.08089199,0.3866861,-0.03900185,-0.06655408,0.00370702,0.01485361,-0.02645838,-0.02522893,3
2013-09-19 17:00:40.986,62,1.24,51.03943,13.79346,114,0,143.0859,8,5,1379602840,0.05819702,-0.3940125,-0.9114227,-8.680481,-30.10449,-27.53934,151.8343,148.6959,10,0.05392289,-0.02840954,0.02248507,2.691164,0.07920992,0.3882533,0.06530549,-0.05208487,0.01566991,-0.005076811,-0.01440258,-0.004957929,3
2013-09-19 17:00:41.032,63,1.26,51.03943,13.79346,114,0,143.0859,8,5,1379602840,0.04710388,-0.3785553,-0.9377594,-8.882233,-30.97862,-27.4693,151.8279,148.6895,10,-0.001450091,-0.01919021,0.02664546,2.691455,0.07851877,0.3889695,0.03694846,-0.03333274,0.02249346,-0.01241341,-0.01573862,0.01012648,3
2013-09-19 17:00:41.046,64,1.28,51.03943,13.79346,114,0,143.0859,8,5,1379602840,0.05551147,-0.3618164,-0.9627533,-8.277023,-30.77692,-27.39926,151.8343,148.6959,10,0.001473527,-0.009195362,-0.026491,2.692878,0.07642485,0.3887646,-0.01567029,-0.02969835,-0.005876904,-0.02803526,0.01414685,-0.02777783,3
2013-09-19 17:00:41.090,65,1.3,51.03943,13.79346,114,0,143.0859,8,5,1379602840,0.07096863,-0.3714447,-0.9643097,-8.47876,-30.97862,-27.88962,151.8358,148.6974,10,0.02012924,0.004128965,-0.05170554,2.692907,0.0755363,0.3879957,-0.01550305,-0.01412336,-0.02648082,-0.02621502,0.01343514,-0.03029369,3
2013-09-19 17:00:41.107,66,1.32,51.03943,13.79346,114,0,143.0859,8,5,1379602840,0.1013489,-0.4013672,-0.9394684,-8.478745,-30.17172,-28.30991,151.8218,148.6834,10,0.02745666,-0.001817874,-0.0455555,2.690335,0.07605436,0.3879599,0.02548984,-0.03126816,-0.07180174,0.007119259,0.0001421705,-0.02282446,3
2013-09-19 17:00:41.150,67,1.34,51.03943,13.79346,114,0,143.0859,8,5,1379602840,0.08604431,-0.3878479,-0.9436951,-8.008057,-29.97002,-28.09976,151.8226,148.6842,10,0.01263297,-0.006684002,-0.03724457,2.689433,0.07620665,0.3881565,0.01040316,-0.006725861,-0.04553721,0.01345409,-0.01131832,-0.01114482,3
2013-09-19 17:00:41.166,68,1.36,51.03943,13.79346,114,0,143.0859,8,5,1379602840,0.08784485,-0.3937225,-0.9416962,-8.47876,-30.5752,-28.45004,151.8169,148.6786,10,0.0272745,0.009818543,-0.02630697,2.687834,0.0768909,0.3879974,-0.002021824,-0.01520006,-0.02993801,0.01493893,-0.009512413,-0.02076155,3
2013-09-19 17:00:41.216,69,1.38,51.03943,13.79346,114,0,143.0859,8,5,1379602840,0.09664917,-0.3995361,-0.9521027,-8.277023,-30.23898,-28.09979,151.8135,148.6751,10,0.03455025,0.01446789,-0.01538641,2.687472,0.07699135,0.3880337,0.01022237,0.004913472,-0.02628974,0.02551318,-0.01523141,-0.02438345,3
2013-09-19 17:00:41.226,70,1.4,51.03943,13.79346,114,0,143.0859,8,5,1379602840,0.07752991,-0.4085236,-0.9186707,-8.47876,-30.30621,-28.87036,151.7995,148.6611,10,-0.01869939,0.01267052,0.02748595,2.686553,0.07832884,0.3886412,-0.03666586,-0.03213887,-0.003675693,0.02696715,-0.02345819,-0.01689633,3
2013-09-19 17:00:41.286,71,1.42,51.03943,13.79346,114,0,143.0859,8,5,1379602840,0.05860901,-0.3951569,-0.9480591,-8.277023,-30.37347,-28.23987,151.7949,148.6565,10,-0.01507163,0.03274197,0.03224555,2.686851,0.07765868,0.3882248,-0.03574636,0.007768869,0.02750224,0.01162777,-0.03090841,-0.001554051,3
2013-09-19 17:00:41.364,72,1.44,51.03943,13.79346,114,0,143.0859,8,5,1379602840,0.0428009,-0.3619843,-0.9620361,-8.54599,-30.50795,-28.37997,151.7847,148.6463,10,-0.002415221,-0.001144094,-0.004849616,2.68906,0.07674332,0.3863165,8.192517e-05,-0.001242883,-0.002215427,-0.02450903,0.001031264,-0.04410509,3
2013-09-19 17:00:41.450,73,1.46,51.03943,13.79346,114,0,143.0859,8,5,1379602840,0.0428009,-0.3619843,-0.9620361,-8.277023,-31.71828,-28.09979,151.8133,148.6749,10,-0.008385495,-0.01872762,-0.02292742,2.688973,0.07674225,0.3860561,-0.01956257,-0.006018983,-0.004822928,-0.02837604,0.002697394,-0.04507534,3
2013-09-19 17:00:41.492,74,1.48,51.03943,13.79346,114,0,143.0859,8,5,1379602840,0.05506897,-0.3824615,-0.9588165,-7.537338,-30.97864,-28.59018,151.8594,148.721,10,0.0004450142,-0.01726421,-0.04818697,2.688973,0.07674225,0.3860561,-0.01956257,-0.006018983,-0.004822928,-0.02837604,0.002697394,-0.04507534,3
2013-09-19 17:00:41.579,75,1.5,51.03943,13.79346,114,0,143.0859,8,5,1379602840,0.05506897,-0.3824615,-0.9588165,-7.87355,-30.64243,-28.38,151.9001,148.7617,10,0.02508645,0.02076387,-0.05777675,2.688836,0.07652036,0.3857587,-0.02553281,-0.02360249,-0.02290073,-0.02227449,0.005488861,-0.04195726,3
2013-09-19 17:00:41.620,76,1.52,51.03943,13.79346,114,0,143.0859,8,5,1379602840,0.07650757,-0.3860931,-0.9612427,-9.016708,-31.38208,-29.01047,151.8716,148.7332,10,0.02508645,0.02076387,-0.05777675,2.688547,0.07551718,0.3847395,-0.01670573,-0.02214258,-0.04815913,-0.02712918,0.01333347,-0.03778163,3
2013-09-19 17:00:41.730,77,1.54,51.03943,13.79346,114,0,143.0859,8,5,1379602840,0.07650757,-0.3860931,-0.9612427,-8.949463,-31.31485,-29.36075,151.8584,148.72,10,0.04718376,0.00778442,-0.05263045,2.687724,0.07595219,0.3846551,0.007935775,0.01588552,-0.05774891,-0.01526557,-0.007222078,-0.03456094,3
2013-09-19 17:00:41.833,78,1.56,51.03943,13.79346,114,0,143.0859,8,5,1379602840,0.07650757,-0.3860931,-0.9612427,-9.28566,-30.97864,-29.57089,151.7626,148.6242,10,0.03356861,-0.03616653,-0.03805684,2.686868,0.07645032,0.3849547,0.03003313,0.002906084,-0.05260262,-8.154854e-07,-0.008744931,-0.04499265,3
2013-09-19 17:00:41.870,79,1.58,51.03943,13.79346,114,0,143.0859,8,5,1379602841,0.06947327,-0.3742371,-0.9247742,-9.218414,-31.18036,-29.64093,151.7398,148.6014,10,-0.006894125,-0.01014638,-0.05313646,2.686868,0.07645032,0.3849547,0.03003313,0.002906084,-0.05260262,-8.154854e-07,-0.008744931,-0.04499265,3
2013-09-19 17:00:41.886,80,1.6,51.03943,13.79346,114,0,143.0859,8,5,1379602841,0.06637573,-0.3841095,-0.9247894,-8.142532,-30.50793,-29.50082,151.6542,148.5158,10,0.02116734,-0.04935024,-0.02484463,2.683375,0.07673367,0.3826399,-0.008583397,-0.03666438,-0.00573361,-0.006188477,-0.005031927,-0.03464231,3
2013-09-19 17:00:41.932,81,1.62,51.03943,13.79346,114,0,143.0859,8,5,1379602841,0.06576538,-0.3723602,-0.9374084,-7.537338,-29.90277,-28.73029,151.6667,148.5284,10,-0.02117639,-0.01695342,0.03244902,2.683218,0.07784372,0.3830556,0.04272313,0.01299385,0.0211319,0.0002584524,-0.01926423,-0.02984125,3
2013-09-19 17:00:41.992,82,1.64,51.03943,13.79346,114,0,143.0859,8,5,1379602841,0.06344604,-0.3627319,-0.9732056,-5.923508,-28.9614,-28.16986,151.7602,148.6218,10,-0.01244575,0.03885472,0.01292698,2.685676,0.07459732,0.3813325,-0.02732606,0.04710106,0.01413012,-0.01241207,-0.003254383,0.0005699183,3
2013-09-19 17:00:42.006,83,1.66,51.03943,13.79346,114,0,143.0859,8,5,1379602841,0.08169556,-0.3782196,-0.9747009,-5.990768,-29.29761,-26.69879,151.907,148.7687,10,0.0468751,0.02875149,-0.02015507,2.686161,0.07423926,0.3786118,-0.02325918,0.000182782,-0.02419622,-0.009607276,-0.002988688,-0.04371766,3
2013-09-19 17:00:42.049,84,1.68,51.03943,13.79346,114,0,143.0859,8,5,1379602841,0.09861755,-0.3925934,-0.9443665,-6.125259,-29.56659,-27.11911,151.9666,148.8282,10,0.08127835,0.03950506,-0.01862295,2.685836,0.07457292,0.3786426,0.02955171,0.02398726,-0.02011434,0.0005977079,-0.01065054,-0.03770956,3
2013-09-19 17:00:42.066,85,1.7,51.03943,13.79346,114,0,143.0859,8,5,1379602841,0.08122253,-0.3869324,-0.9476318,-6.461456,-29.90279,-26.76883,152.0214,148.883,10,-0.02828996,-0.03444612,0.004700479,2.684736,0.07655928,0.3801925,-0.009971351,-0.02725209,0.005071684,0.02759455,-0.02149418,-0.01849329,3
2013-09-19 17:00:42.112,86,1.72,51.03943,13.79346,114,0,143.0859,8,5,1379602841,0.06878662,-0.3842621,-0.9652863,-6.394226,-30.64244,-27.11911,152.0836,148.9453,10,0.001084705,0.01760163,0.01440131,2.684725,0.07638425,0.3800091,-0.04561176,-0.03920328,0.004738535,0.0179858,-0.02180178,-0.0166888,3
2013-09-19 17:00:42.126,87,1.74,51.03943,13.79346,114,0,143.0859,8,5,1379602841,0.08230591,-0.3899536,-0.9630737,-6.394226,-30.91141,-27.95972,152.1424,149.004,10,0.003507916,-0.04162068,0.0244092,2.685314,0.07656163,0.3793482,0.005922823,-0.009535525,0.0136012,0.007594688,-0.01481669,-0.04952297,3
2013-09-19 17:00:42.170,88,1.76,51.03943,13.79346,114,0,143.0859,8,5,1379602841,0.063797,-0.3813171,-0.9518738,-6.595947,-31.11313,-27.32928,152.2016,149.0632,10,-0.03458967,-0.07015139,0.02534663,2.685576,0.07618292,0.3794785,-0.01381189,-0.04637536,0.02444644,0.01155019,-0.02644502,-0.0426625,3
2013-09-19 17:00:42.186,89,1.78,51.03943,13.79346,114,0,143.0859,8,5,1379602841,0.0493927,-0.3647766,-0.9454803,-6.797668,-31.18037,-27.95975,152.3055,149.1671,10,0.03060558,-0.01305668,0.01610547,2.687303,0.07303299,0.3782776,-0.004149878,-0.01930597,0.04130664,-0.007888128,-0.01108119,-0.02512522,3
2013-09-19 17:00:42.231,90,1.8,51.03943,13.79346,114,0,143.0859,8,5,1379602841,0.06309509,-0.3705292,-0.9557953,-6.797668,-31.18037,-27.95975,152.3055,149.1671,10,0.0406457,-0.0009568738,-0.007991347,2.687757,0.07234579,0.3783264,0.013286,-0.01781374,0.01614369,-0.01097304,-0.005206974,-0.03098671,3
2013-09-19 17:00:42.246,91,1.82,51.03943,13.79346,114,0,143.0859,8,5,1379602841,0.0717926,-0.3842468,-0.9719696,-7.402847,-30.84418,-26.76889,152.398,149.2596,10,-0.001067395,-0.001008805,-0.01811376,2.687869,0.07115068,0.3774648,-0.0330754,-0.01048213,-0.02545503,-0.002990924,-0.001964275,-0.02854529,3
2013-09-19 17:00:42.304,92,1.84,51.03943,13.79346,114,0,143.0859,8,5,1379602841,0.08538818,-0.3889618,-0.9736023,-7.402847,-30.84418,-26.76889,152.398,149.2596,10,0.07876752,-0.02567154,-0.006223808,2.687586,0.07111113,0.3769836,-0.01839183,-0.005771012,-0.01807385,0.001839669,-0.005310761,-0.02825909,3
2013-09-19 17:00:42.350,93,1.86,51.03943,13.79346,114,0,143.0859,8,5,1379602841,0.07096863,-0.3704529,-0.9633789,-6.125244,-30.239,-26.69885,152.5691,149.4307,10,-0.008683769,0.01527296,0.007062171,2.687245,0.07173196,0.3781259,-0.04699469,0.00205791,0.01777574,0.002362198,0.006645838,-0.01910726,3
2013-09-19 17:00:42.366,94,1.88,51.03943,13.79346,114,0,143.0859,8,5,1379602841,0.06991577,-0.3783875,-0.9691467,-5.856277,-30.10451,-27.11917,152.6377,149.4994,10,0.006256831,-0.003407515,-0.01198343,2.687586,0.07190885,0.3765581,-0.009934422,-0.009448449,-0.001062289,0.004994861,-0.009612671,-0.03580059,3
2013-09-19 17:00:42.418,95,1.9,51.03943,13.79346,114,0,143.0859,8,5,1379602841,0.07542419,-0.3890381,-0.9564514,-5.654541,-30.03728,-27.04913,152.7114,149.573,10,0.01614169,-0.02344327,-0.01538508,2.68749,0.07180832,0.3763852,-0.01106885,-0.008162781,-0.01194636,0.001192559,-0.007850872,-0.03289234,3
2013-09-19 17:00:42.426,96,1.92,51.03943,13.79346,114,0,143.0859,8,5,1379602841,0.07064819,-0.3782806,-0.9488678,-5.990753,-30.37349,-26.83896,152.8674,149.729,10,0.01107822,0.008341287,-0.002336658,2.687086,0.07127902,0.3766016,-0.01119703,-0.007121907,0.002532144,0.002253786,-0.02036023,-0.01841013,3
2013-09-19 17:00:42.469,97,1.94,51.03943,13.79346,114,0,143.0859,8,5,1379602841,0.07817078,-0.3928986,-0.9476776,-6.932144,-29.5666,-26.97906,152.9101,149.7717,10,0.04426866,0.02502785,-0.003264236,2.687136,0.07120681,0.3765199,-0.006245524,0.003587015,-0.00229981,-0.0003669176,-0.01065532,-0.02330397,3
2013-09-19 17:00:42.486,98,1.96,51.03943,13.79346,114,0,143.0859,8,5,1379602841,0.05793762,-0.379425,-0.9481354,-7.201111,-29.83554,-26.55875,152.9505,149.8121,10,0.002382198,-0.03677506,0.01229821,2.687407,0.0720441,0.3773296,-0.01990881,-0.01910879,0.01577825,0.007682207,-0.01373243,-0.03117952,3
2013-09-19 17:00:42.527,99,1.98,51.03943,13.79346,114,0,143.0859,8,5,1379602841,0.06587219,-0.372406,-0.947052,-7.13385,-30.30623,-27.32932,152.9922,149.8539,10,0.03435877,-0.001133441,0.007632353,2.687688,0.07144891,0.3769266,-0.0149405,-0.04152756,0.01233445,0.003630619,-0.008369776,-0.04557924,3
2013-09-19 17:00:42.546,100,2,51.03943,13.79346,114,0,143.0859,8,5,1379602841,0.05995178,-0.3774414,-0.951004,-7.268341,-29.90279,-27.46942,153.0252,149.8869,10,0.00372736,-0.02125229,-0.002257029,2.688186,0.07056767,0.3772639,-0.01118009,-0.0260456,0.002635936,0.0003215573,-0.004027852,-0.0196898,3
2013-09-19 17:00:42.587,101,2.02,51.03943,13.79346,114,0,143.0859,8,5,1379602841,0.07551575,-0.3801422,-0.9477844,-7.402832,-30.03726,-28.02982,153.0518,149.9134,10,0.03077895,0.02383343,-0.00702968,2.688253,0.07004271,0.3769499,-0.01359654,-0.02600764,-0.002219766,-0.005120105,-0.009355173,-0.02349221,3
2013-09-19 17:00:42.606,102,2.04,51.03943,13.79346,114,0,143.0859,8,5,1379602841,0.06111145,-0.3695679,-0.9529572,-8.277008,-30.37347,-28.80038,153.0748,149.9364,10,-0.05281075,-0.06286978,-0.0002466087,2.688393,0.07113042,0.3775677,-0.02238324,-0.002560551,0.01566052,0.0144561,-0.004538865,-0.02243251,3
2013-09-19 17:00:42.645,103,2.06,51.03943,13.79346,114,0,143.0859,8,5,1379602841,0.0599823,-0.3794403,-0.9558105,-9.28566,-30.17172,-29.15063,153.0475,149.9092,10,0.05280889,0.03919135,0.002789661,2.68849,0.07038251,0.376339,-0.07013628,-0.06762305,-0.0002102883,-0.0002630783,0.002939903,-0.02614363,3
2013-09-19 17:00:42.667,104,2.08,51.03943,13.79346,114,0,143.0859,8,5,1379602841,0.07324219,-0.3929749,-0.94487,-10.09258,-30.5752,-29.57095,153.0043,149.8659,10,0.009815346,-0.002355033,0.002536395,2.688152,0.07050206,0.3768,0.004875783,-0.01406672,-0.006907774,0.01097523,-0.01515558,-0.02600012,3
2013-09-19 17:00:42.707,105,2.1,51.03943,13.79346,114,0,143.0859,8,5,1379602841,0.07096863,-0.3773956,-0.973938,-9.621857,-30.64244,-29.0806,152.9763,149.838,10,0.002368615,0.02950463,0.00710771,2.687999,0.07047515,0.3770352,-0.007502203,-0.007015099,0.002571855,0.008793756,-0.0228104,-0.01645643,3
2013-09-19 17:00:42.726,106,2.12,51.03943,13.79346,114,0,143.0859,8,5,1379602841,0.06001282,-0.371521,-0.9461975,-8.814941,-30.50795,-27.81967,152.9754,149.837,10,0.02330719,-0.01654755,0.007593205,2.688365,0.07056203,0.3767785,-0.006330214,-0.04022081,0.0124231,0.00336594,-0.01342083,-0.04548163,3
2013-09-19 17:00:42.777,107,2.14,51.03943,13.79346,114,0,143.0859,8,5,1379602841,0.07174683,-0.372345,-0.9488678,-8.008026,-30.77692,-27.67953,152.9982,149.8598,10,0.05163204,0.002546781,0.0005621933,2.688531,0.07004997,0.3767571,0.005989967,-0.02120687,0.007628401,-8.114906e-05,-0.008527367,-0.03393521,3
2013-09-19 17:00:42.785,108,2.16,51.03943,13.79346,114,0,143.0859,8,5,1379602841,0.05789185,-0.3804016,-0.9462128,-6.864899,-30.97864,-26.76889,153.1046,149.9662,10,-0.04789216,-0.03917483,-0.002735599,2.688577,0.07057457,0.3777386,-0.0124517,0.01779267,0.003587956,0.006202137,-0.003525531,-0.02168059,3
2013-09-19 17:00:42.831,109,2.18,51.03943,13.79346,114,0,143.0859,8,5,1379602841,0.06820679,-0.3794861,-0.9913635,-6.864899,-30.97864,-26.76889,153.1046,149.9662,10,0.03556572,0.05093402,0.004947355,2.688661,0.07017335,0.3769058,-0.06521007,-0.0438344,-0.002700355,0.002631118,-0.005352634,-0.02238588,3
2013-09-19 17:00:42.846,110,2.2,51.03943,13.79346,114,0,143.0859,8,5,1379602841,0.0743866,-0.384079,-0.9429626,-7.470093,-31.31485,-27.39938,153.1979,150.0595,10,0.04316984,0.04884477,-0.02030634,2.688514,0.06970634,0.3771271,0.05169325,-0.02435835,-0.01598671,0.000338635,-0.004246627,-0.03504056,3
2013-09-19 17:00:42.888,111,2.22,51.03943,13.79346,114,0,143.0859,8,5,1379602841,0.07252502,-0.3831482,-0.9497681,-7.940781,-31.24762,-27.60953,153.226,150.0876,10,0.03802488,0.03792075,0.00625257,2.688207,0.06995648,0.3777074,0.02585053,0.04418261,-0.02027018,-0.01213122,-0.008666206,-0.0007547631,3
2013-09-19 17:00:42.907,112,2.24,51.03943,13.79346,114,0,143.0859,8,5,1379602841,0.0688324,-0.3803253,-0.9633789,-8.478745,-31.3821,-28.02985,153.2391,150.1007,10,-0.01854279,0.04362364,0.006797452,2.688006,0.07079241,0.3785122,-0.02596956,-6.551275e-06,0.00474125,0.004692848,-0.009627219,-0.003623466,3
2013-09-19 17:00:42.948,113,2.26,51.03943,13.79346,114,0,143.0859,8,5,1379602841,0.06529236,-0.3705902,-0.9769897,-8.680481,-31.44934,-28.52017,153.2441,150.1057,10,-0.003854127,0.05544302,0.01293231,2.688142,0.07109939,0.378187,-0.0358585,0.03896452,0.006832697,-0.0004677755,-0.009013942,-0.003645916,3
2013-09-19 17:00:42.967,114,2.28,51.03943,13.79346,114,0,143.0859,8,5,1379602842,0.07559204,-0.3871155,-0.9670563,-8.949463,-31.58383,-28.94046,153.2358,150.0974,10,0.02585716,0.02854696,-0.007110374,2.688259,0.07222672,0.3775123,0.034388,0.01099177,-0.00913049,-0.001790119,-0.001981111,-0.04982888,3
2013-09-19 17:00:43.008,115,2.3,51.03943,13.79346,114,0,143.0859,8,5,1379602842,0.07559204,-0.3871155,-0.9670563,-8.949463,-31.58383,-28.94046,153.2358,150.0974,10,-0.01346787,-0.0402361,-0.002345446,2.688065,0.0725575,0.3776101,0.008537241,0.02388708,-0.00707515,0.002605519,-0.00275999,-0.03722227,3
2013-09-19 17:00:43.026,116,2.32,51.03943,13.79346,114,0,143.0859,8,5,1379602842,0.07162476,-0.3742828,-0.9421082,-8.882202,-31.24763,-29.43082,153.2103,150.0719,10,0.0272239,0.006210758,-0.02025174,2.687588,0.07237234,0.3771759,0.04296496,0.01927787,-0.00666577,-0.001293228,-0.004140147,-0.02557563,3
2013-09-19 17:00:43.064,117,2.34,51.03943,13.79346,114,0,143.0859,8,5,1379602842,0.0753479,-0.3880157,-0.9467926,-8.680466,-31.31487,-28.94046,153.2104,150.072,10,-0.007288539,-0.002296444,-0.009726397,2.687268,0.0726255,0.3773042,0.009903692,0.001552077,-0.02021699,0.004166992,-0.005867183,-0.01489763,3
2013-09-19 17:00:43.086,118,2.36,51.03943,13.79346,114,0,143.0859,8,5,1379602842,0.06877136,-0.3783264,-0.9546967,-8.411499,-30.91142,-28.66025,153.2135,150.0751,10,0.02936242,0.02835707,0.01345109,2.686898,0.07322563,0.3772285,0.002286321,0.02374987,0.00492631,0.008262433,-0.02757459,-0.03013872,3
2013-09-19 17:00:43.129,119,2.38,51.03943,13.79346,114,0,143.0859,8,5,1379602842,0.07055664,-0.3831635,-0.9478607,-8.613235,-30.44073,-29.1506,153.2019,150.0635,10,0.007264571,-0.00838443,0.01340502,2.686949,0.0738299,0.3777106,0.01204774,0.02370221,0.01348479,0.009912547,-0.01429373,-0.03037247,3
2013-09-19 17:00:43.146,120,2.4,51.03943,13.79346,114,0,143.0859,8,5,1379602842,0.06219482,-0.364624,-0.9539185,-9.083939,-30.239,-28.94043,153.1643,150.0259,10,0.04777418,0.02483824,0.01729723,2.687533,0.07299744,0.3773189,-0.005154236,0.001157976,0.01462333,0.0009080965,-0.01383384,-0.0294393,3
2013-09-19 17:00:43.186,121,2.42,51.03943,13.79346,114,0,143.0859,8,5,1379602842,0.06219482,-0.364624,-0.9539185,-9.083939,-30.239,-28.94043,153.1643,150.0259,10,0.02593519,0.0002218413,-0.01299037,2.687753,0.07311497,0.3775855,0.03046037,0.02018247,0.01733136,-0.001040015,-0.01264003,-0.03633541,3
2013-09-19 17:00:43.206,122,2.44,51.03943,13.79346,114,0,143.0859,8,5,1379602842,0.06668091,-0.3733215,-0.9335175,-9.554642,-30.84416,-29.0105,153.1057,149.9673,10,0.02588673,0.01910898,-0.009472864,2.687344,0.07264775,0.3773714,0.01350211,-0.004455164,-0.009279621,-0.0034965,0.0009549019,-0.01797557,3
2013-09-19 17:00:43.246,123,2.46,51.03943,13.79346,114,0,143.0859,8,5,1379602842,0.07168579,-0.3772888,-0.9517365,-9.420151,-31.24762,-29.15057,153.0874,149.949,10,-0.002391252,0.0213748,-0.009800966,2.687174,0.07273559,0.3775312,0.008568329,0.0144505,-0.009438016,-0.0008728552,-0.004694891,-0.006397783,3
2013-09-19 17:00:43.266,124,2.48,51.03943,13.79346,114,0,143.0859,8,5,1379602842,0.07275391,-0.3852234,-0.9729309,-9.352905,-31.44934,-29.64093,153.0699,149.9315,10,0.05661907,0.03460458,-0.01042148,2.68666,0.0732467,0.3768848,0.002384361,0.008468166,-0.004646129,0.002648928,-0.01916604,-0.03982537,3
2013-09-19 17:00:43.310,125,2.5,51.03943,13.79346,114,0,143.0859,8,5,1379602842,0.0743103,-0.3929901,-0.9516144,-9.083939,-31.04588,-28.94043,153.0586,149.9202,10,0.01602903,-0.01764877,-0.003346528,2.686503,0.07373972,0.3774481,0.0393027,0.02994708,-0.01038686,0.00498413,-0.0254783,-0.03806701,3
2013-09-19 17:00:43.327,126,2.52,51.03943,13.79346,114,0,143.0859,8,5,1379602842,0.07344055,-0.3831177,-0.9449005,-9.016708,-30.70969,-29.01044,153.0225,149.8841,10,0.03683578,0.0154687,0.00394787,2.686254,0.07368291,0.3781058,-0.0001402288,9.940435e-05,0.003820786,0.007114593,-0.01198852,-0.02480105,3
2013-09-19 17:00:43.366,127,2.54,51.03943,13.79346,114,0,143.0859,8,5,1379602842,0.07426453,-0.3929596,-0.9477539,-9.016708,-30.70969,-29.01044,153.0225,149.8841,10,0.02329813,0.007118363,0.006256565,2.686205,0.07381774,0.3781133,0.01951996,0.01081337,0.003981686,0.005311363,0.0007747712,-0.0277885,3
2013-09-19 17:00:43.386,128,2.56,51.03943,13.79346,114,0,143.0859,8,5,1379602842,0.05810547,-0.3755341,-0.9568481,-8.613251,-30.44072,-29.01044,152.9937,149.8553,10,0.03693511,0.0001890844,-0.005624596,2.68653,0.07431657,0.3789741,-0.01629204,0.01287565,0.02167751,0.00136314,-0.02503675,-0.02327248,3
2013-09-19 17:00:43.427,129,2.58,51.03943,13.79346,114,0,143.0859,8,5,1379602842,0.07354736,-0.38414,-0.9545593,-8.680481,-30.91141,-29.22061,152.9881,149.8497,10,0.04811054,-0.01622265,-0.01627458,2.6867,0.07408044,0.3784516,0.0196196,-0.004466664,-0.005590578,-0.006366951,0.002798138,-0.04943077,3
2013-09-19 17:00:43.446,130,2.6,51.03943,13.79346,114,0,143.0859,8,5,1379602842,0.07719421,-0.3800201,-0.9255524,-8.411499,-30.64244,-29.22058,152.9854,149.847,10,0.03313958,-0.0129648,0.007683486,2.686192,0.07337458,0.3794267,0.01726228,-0.02212238,-0.01517703,0.005452532,-0.01375202,-0.02818153,3
2013-09-19 17:00:43.485,131,2.62,51.03943,13.79346,114,0,143.0859,8,5,1379602842,0.05856323,-0.3743286,-0.9105225,-8.680466,-30.37349,-29.78101,152.968,149.8296,10,0.008498413,0.0117496,0.01089473,2.686027,0.07353199,0.3799118,0.01582563,-0.01761984,0.007717345,0.008966768,-0.009181602,0.0006354062,3
2013-09-19 17:00:43.507,132,2.64,51.03943,13.79346,114,0,143.0859,8,5,1379602842,0.0756073,-0.3871155,-0.9680176,-8.209778,-30.97865,-29.57083,152.9727,149.8343,10,0.001384311,0.03213983,-0.02068158,2.686263,0.07375915,0.3793032,-0.03321929,0.03206944,-0.01241496,-0.01523179,0.004581179,-0.01418514,3
2013-09-19 17:00:43.545,133,2.66,51.03943,13.79346,114,0,143.0859,8,5,1379602842,0.07507324,-0.3764191,-0.9893036,-8.545975,-30.239,-29.36069,152.9594,149.821,10,-0.01700801,0.0262087,-0.02568353,2.686105,0.07393768,0.378692,-0.01593073,0.02748094,-0.02064626,-0.004656444,-0.006744147,-0.03299954,3
2013-09-19 17:00:43.566,134,2.68,51.03943,13.79346,114,0,143.0859,8,5,1379602842,0.07847595,-0.3850708,-0.9612122,-8.142532,-30.91139,-29.50076,152.9505,149.8121,10,0.0787811,0.008674448,-0.01123987,2.684782,0.07536726,0.3771843,0.009907547,-0.01265048,-0.01893263,0.008533959,-0.02572355,-0.05341787,3
2013-09-19 17:00:43.610,135,2.7,51.03943,13.79346,114,0,143.0859,8,5,1379602842,0.07902527,-0.3908539,-0.933197,-8.008057,-30.77692,-28.80023,152.9622,149.8239,10,0.08135238,0.002888465,-0.02325099,2.68446,0.07555248,0.3777938,0.06146345,0.004017459,-0.01120547,0.002550349,-0.01931289,-0.04608649,3
2013-09-19 17:00:43.627,136,2.72,51.03943,13.79346,114,0,143.0859,8,5,1379602842,0.07058716,-0.3822021,-0.9498138,-8.882217,-30.57518,-29.01041,152.9467,149.8083,10,-0.01842268,-0.02135376,-8.921589e-05,2.683649,0.07567783,0.379397,-0.01600569,-0.02586946,-0.007078601,0.006827728,-0.01753328,-0.0002536798,3
2013-09-19 17:00:43.670,137,2.74,51.03943,13.79346,114,0,143.0859,8,5,1379602842,0.07374573,-0.3772888,-0.9613342,-9.016708,-30.84415,-28.59012,152.9343,149.796,10,0.01714916,0.04734461,0.002347044,2.683626,0.07529403,0.3789284,-0.03573995,-0.02601006,-5.50463e-05,0.01095435,-0.02283617,0.0009990296,3
2013-09-19 17:00:43.687,138,2.76,51.03943,13.79346,114,0,143.0859,8,5,1379602842,0.06565857,-0.3802643,-0.9421997,-8.949463,-30.64241,-28.23987,152.9233,149.7849,10,-0.002483398,-0.00950642,0.003645335,2.683718,0.07633648,0.3797592,0.003540412,-0.01528664,0.006360392,0.002916758,-0.006592029,-0.03528501,3
2013-09-19 17:00:43.728,139,2.78,51.03943,13.79346,114,0,143.0859,8,5,1379602842,0.06332397,-0.3646545,-0.9654694,-9.21843,-30.10449,-27.67944,152.9018,149.7635,10,0.01727513,0.01315335,-0.008329303,2.683836,0.0758331,0.3795505,-0.01990131,-0.01407402,0.003706864,-0.004588032,-0.007838688,-0.02377406,3
2013-09-19 17:00:43.746,140,2.8,51.03943,13.79346,114,0,143.0859,8,5,1379602842,0.06582642,-0.3773651,-0.9518585,-8.949463,-29.97,-28.23987,152.8299,149.6915,10,0.02119823,0.002772084,-0.033579,2.683408,0.07553434,0.3784327,-0.002374034,-0.01129363,-0.03232652,-0.0003752429,-0.008846674,-0.0280709,3
2013-09-19 17:00:43.786,141,2.82,51.03943,13.79346,114,0,143.0859,8,5,1379602842,0.07926941,-0.3869781,-0.9486542,-8.546005,-29.83553,-28.80026,152.8025,149.6641,10,0.03226659,0.01110192,-0.03470818,2.682894,0.07568281,0.378336,0.003775223,-0.001798323,-0.03351673,0.002398909,-0.00789888,-0.02607734,3
2013-09-19 17:00:43.806,142,2.84,51.03943,13.79346,114,0,143.0859,8,5,1379602842,0.07919312,-0.3889313,-0.945755,-9.151184,-30.03725,-29.01041,152.7615,149.6231,10,-0.009698167,-0.02237508,-0.01326494,2.681509,0.07703564,0.37962,0.02692023,0.02408963,-0.01167091,0.006736171,-0.02236157,-0.02548718,3
2013-09-19 17:00:43.847,143,2.86,51.03943,13.79346,114,0,143.0859,8,5,1379602842,0.08432007,-0.3849792,-0.9601288,-9.352905,-30.10448,-29.92108,152.7084,149.57,10,0.02455435,0.02609365,0.001338238,2.681161,0.07738342,0.3798871,-0.0271163,-0.02694289,-0.01320333,0.01038905,-0.01512494,-0.01978197,3
2013-09-19 17:00:43.866,144,2.88,51.03943,13.79346,114,0,143.0859,8,5,1379602842,0.06660461,-0.3802185,-0.9373474,-9.28566,-30.17172,-29.85101,152.66,149.5216,10,0.01964135,-0.02955869,0.006416088,2.681007,0.0777684,0.3798459,0.009551094,0.0001766658,0.008785346,0.01216764,-0.01420188,-0.03421401,3
2013-09-19 17:00:43.906,145,2.9,51.03943,13.79346,114,0,143.0859,8,5,1379602842,0.06660461,-0.3802185,-0.9373474,-9.420151,-30.03725,-29.71091,152.6069,149.4685,10,-0.0332509,0.01639309,0.004367318,2.680971,0.07762675,0.3798242,0.002225367,-0.03412302,0.006476473,0.004485672,-0.008408458,-0.02375876,3
2013-09-19 17:00:43.926,146,2.92,51.03943,13.79346,114,0,143.0859,8,5,1379602842,0.07403564,-0.3793793,-0.9893036,-8.680481,-30.50792,-29.50076,152.5416,149.4032,10,0.03818387,0.04046487,-0.01186651,2.681483,0.07691295,0.3779469,-0.00991052,0.03111626,-0.01815626,-0.008273436,-0.008474163,-0.04549144,3
2013-09-19 17:00:43.967,147,2.94,51.03943,13.79346,114,0,143.0859,8,5,1379602842,0.08166504,-0.3801727,-0.9746857,-8.680481,-30.50792,-29.50076,152.5416,149.4032,10,0.03827735,-0.01862269,-0.01637152,2.6813,0.07746286,0.3778448,0.02076499,0.03589559,-0.01180436,0.002108854,-0.01046111,-0.06262893,3
2013-09-19 17:00:43.986,148,2.96,51.03943,13.79346,114,0,143.0859,8,5,1379602843,0.08792114,-0.3887787,-0.9397888,-8.949448,-30.50792,-28.94037,152.4885,149.3501,10,0.05047223,-0.003299657,-0.006661898,2.680396,0.07710467,0.3778904,0.01597357,-0.0267199,-0.0199665,0.008804988,-0.0131043,-0.02679235,3
2013-09-19 17:00:44.025,149,2.98,51.03943,13.79346,114,0,143.0859,8,5,1379602843,0.07929993,-0.3810272,-0.9409637,-8.814957,-30.7769,-29.08047,152.4691,149.3307,10,0.05282753,0.02974165,0.001634116,2.680129,0.07715133,0.3783557,0.03305176,-0.007865935,-0.006601018,0.01254392,-0.01651711,-0.02107706,3
2013-09-19 17:00:44.046,150,3,51.03943,13.79346,114,0,143.0859,8,5,1379602843,0.06756592,-0.3772736,-0.9344482,-8.882202,-30.70966,-29.01041,152.4476,149.3092,10,-0.01236719,-0.01551398,0.009603359,2.680058,0.07834725,0.3802695,-0.001566024,-0.01530614,0.01598769,0.001725774,-0.008956223,-0.01243993,3
2013-09-19 17:00:44.086,151,3.02,51.03943,13.79346,114,0,143.0859,8,5,1379602843,0.06756592,-0.3772736,-0.9344482,-9.151184,-30.57516,-29.15048,152.4152,149.2768,10,-0.02089969,-7.376956e-05,-0.0002330266,2.680278,0.07789592,0.3800711,-0.02978345,-0.02007757,0.009663528,-0.005735676,-0.00625652,-0.001896825,3
2013-09-19 17:00:44.106,152,3.04,51.03943,13.79346,114,0,143.0859,8,5,1379602843,0.06565857,-0.3832245,-0.9470062,-8.680481,-30.23897,-29.36066,152.3649,149.2266,10,-0.04187235,0.0471249,0.002896188,2.680662,0.07746863,0.3784168,-0.06418651,0.02480285,0.0029991,-0.005540065,-0.01365268,0.003612148,3
2013-09-19 17:00:44.146,153,3.06,51.03943,13.79346,114,0,143.0859,8,5,1379602843,0.06416321,-0.3804626,-0.9817963,-8.680481,-30.23897,-29.36066,152.3649,149.2266,10,-0.03334757,0.05416816,0.01140286,2.680908,0.07780027,0.3776387,-0.05928351,0.04255971,0.00295741,-0.006586794,-0.01449788,-0.02028011,3
2013-09-19 17:00:44.166,154,3.08,51.03943,13.79346,114,0,143.0859,8,5,1379602843,0.07090759,-0.3872681,-0.9854889,-9.352905,-30.10448,-29.36063,152.2979,149.1596,10,-0.01096077,-0.008211059,-0.01094213,2.681388,0.07835627,0.3754773,-0.02477172,-0.0022062,-0.002447258,-0.0008166,-0.01464629,-0.05897203,3
2013-09-19 17:00:44.207,155,3.1,51.03943,13.79346,114,0,143.0859,8,5,1379602843,0.07402039,-0.3793793,-0.987381,-9.016708,-30.44067,-29.01035,152.2725,149.1342,10,0.02469523,-0.01281646,-0.01051895,2.681343,0.07810621,0.3749203,-0.02837608,-0.01278066,-0.01087943,-0.00157716,-0.01517978,-0.05876562,3
2013-09-19 17:00:44.226,156,3.12,51.03943,13.79346,114,0,143.0859,8,5,1379602843,0.09468079,-0.3846741,-0.9261475,-8.882217,-30.44067,-29.15045,152.2501,149.1118,10,0.07406411,-0.03728958,-0.02914883,2.680687,0.077393,0.3748578,0.03084406,-0.03128249,-0.03184599,0.004133386,-0.01027887,-0.06249068,3
2013-09-19 17:00:44.265,157,3.14,51.03943,13.79346,114,0,143.0859,8,5,1379602843,0.09040833,-0.3845978,-0.8953552,-9.151184,-30.70964,-29.85095,152.2209,149.0825,10,0.01465857,-0.04148646,0.01487562,2.68014,0.07725271,0.3753489,0.0566481,-0.04185867,-0.02908638,0.01381418,-0.01255323,-0.04892707,3
2013-09-19 17:00:44.286,158,3.16,51.03943,13.79346,114,0,143.0859,8,5,1379602843,0.07284546,-0.3703918,-0.9556122,-9.016693,-30.70966,-29.71085,152.1646,149.0262,10,-0.006334595,0.03054965,0.01786901,2.680538,0.07542434,0.3754184,-0.05316473,-0.001251146,0.01050814,0.009790174,-0.01026082,0.02535024,3
2013-09-19 17:00:44.327,159,3.18,51.03943,13.79346,114,0,143.0859,8,5,1379602843,0.07595825,-0.3743744,-0.9767609,-9.016693,-30.70966,-29.71085,152.1646,149.0262,10,0.01100205,0.04732304,0.002278601,2.680813,0.07558993,0.3749322,-0.02374659,0.02598342,0.01793064,0.003412773,-0.003129555,-0.01516367,3
2013-09-19 17:00:44.345,160,3.2,51.03943,13.79346,114,0,143.0859,8,5,1379602843,0.06921387,-0.3794861,-0.9942474,-9.151184,-30.97862,-29.43066,152.1152,148.9768,10,-0.02092632,-0.007205981,0.003426689,2.681085,0.07729418,0.3744885,-0.01508431,0.03436444,0.0107387,0.004092567,-0.008577866,-0.0488448,3
2013-09-19 17:00:44.386,161,3.22,51.03943,13.79346,114,0,143.0859,8,5,1379602843,0.06062317,-0.3677826,-0.9925232,-8.949448,-31.04585,-29.22049,152.1011,148.9628,10,0.044466,-0.05525367,-0.01730921,2.681283,0.07708248,0.3738086,-0.03834048,-0.01177312,0.003488514,-0.002474508,-0.01432241,-0.06606843,3
2013-09-19 17:00:44.406,162,3.24,51.03943,13.79346,114,0,143.0859,8,5,1379602843,0.08206177,-0.3829041,-0.9302673,-8.882217,-30.97862,-29.57074,152.0872,148.9488,10,0.05910833,-0.01388998,-0.008921856,2.680931,0.07540365,0.3744448,0.05526362,-0.02190988,-0.01351817,-0.001005451,-0.00674166,-0.04498678,3
2013-09-19 17:00:44.446,163,3.26,51.03943,13.79346,114,0,143.0859,8,5,1379602843,0.07754517,-0.3702393,-0.9400787,-8.949463,-30.91139,-29.50067,152.0717,148.9333,10,-0.02837385,-0.03690689,0.01436988,2.68068,0.07526925,0.3752854,0.04169536,-0.01845727,-0.008859879,0.007473717,-0.01162051,-0.01708601,3
2013-09-19 17:00:44.466,164,3.28,51.03943,13.79346,114,0,143.0859,8,5,1379602843,0.0697937,-0.3783417,-0.9594879,-8.277023,-30.7769,-29.92099,152.0676,148.9292,10,0.0306402,0.02249572,0.008668856,2.681065,0.07406989,0.3743432,0.009581993,0.004942685,0.005139114,0.008759341,-0.009582857,-0.0272789,3
2013-09-19 17:00:44.506,165,3.3,51.03943,13.79346,114,0,143.0859,8,5,1379602843,0.08047485,-0.3870392,-0.9679108,-8.747726,-30.17172,-30.13113,152.0425,148.9041,10,0.01961631,9.321064e-06,0.006254434,2.681162,0.07423366,0.3745393,0.01322736,0.0179296,0.008730387,0.004660621,-0.01043791,-0.02551541,3
2013-09-19 17:00:44.526,166,3.32,51.03943,13.79346,114,0,143.0859,8,5,1379602843,0.07069397,-0.3822327,-0.9584961,-9.487396,-29.56656,-29.64081,151.9485,148.8101,10,0.01104866,-0.02010314,0.003854127,2.681501,0.07411064,0.3746862,-0.01514325,-0.0213392,0.02311264,0.008730805,-0.01420743,-0.03607385,3
2013-09-19 17:00:44.566,167,3.34,51.03943,13.79346,114,0,143.0859,8,5,1379602843,0.07777405,-0.3683472,-0.9555054,-9.554642,-29.36484,-29.71085,151.8959,148.7576,10,0.03942464,0.01443753,-0.01050324,2.681587,0.07371151,0.3744387,-0.006363356,-0.02466674,0.003914721,0.001388875,-0.007678193,-0.03421659,3
2013-09-19 17:00:44.586,168,3.36,51.03943,13.79346,114,0,143.0859,8,5,1379602843,0.06568909,-0.3782959,-0.9412537,-10.15982,-29.43207,-29.22052,151.8353,148.697,10,0.02222594,-0.0258585,-0.008060856,2.681611,0.07373714,0.374591,-0.00640061,-0.0341761,0.008794682,0.009212206,-0.002455278,-0.02737693,3
2013-09-19 17:00:44.625,169,3.38,51.03943,13.79346,114,0,143.0859,8,5,1379602843,0.07092285,-0.3694458,-0.9575653,-9.756363,-29.29758,-29.08038,151.7838,148.6455,10,-0.01231952,-0.008358331,0.003529221,2.681563,0.07343948,0.3748256,0.002172461,0.03092688,0.006120721,-0.002590182,-0.01218563,-0.01319051,3
2013-09-19 17:00:44.646,170,3.4,51.03943,13.79346,114,0,143.0859,8,5,1379602843,0.07980347,-0.3782806,-0.9795685,-8.814957,-29.83551,-29.64081,151.7599,148.6215,10,0.05403953,0.04985171,0.001537709,2.681614,0.07293733,0.3735796,-0.00256334,0.01808936,-0.01317597,-0.005819451,-0.004586894,-0.02052985,3
2013-09-19 17:00:44.689,171,3.42,51.03943,13.79346,114,0,143.0859,8,5,1379602843,0.06903076,-0.3695068,-0.9634247,-8.545975,-29.56654,-29.5007,151.7413,148.603,10,0.03812288,0.01080178,-0.002048237,2.681518,0.07369933,0.3739193,0.03662449,0.04528797,0.00159813,0.008145841,-0.01298338,-0.03579646,3
2013-09-19 17:00:44.706,172,3.44,51.03943,13.79346,114,0,143.0859,12,5,1379602844,0.07554626,-0.3831329,-0.9564667,-8.008026,-29.56654,-29.64078,151.7346,148.5963,10,0.03823714,-0.009196694,-0.01280182,2.681233,0.07396974,0.3740147,0.009614952,0.01465684,-0.01178907,-0.000815391,-0.007096271,-0.03218766,3
2013-09-19 17:00:44.748,173,3.46,51.03943,13.79346,114,0,143.0859,12,5,1379602844,0.08129883,-0.3810272,-0.9457397,-8.142517,-29.56654,-29.36057,151.7269,148.5885,10,0.03694603,-0.01282072,-0.00555349,2.681015,0.07411805,0.3741542,0.02071433,-0.01367634,-0.01271776,0.005840873,-0.009819793,-0.03305744,3
2013-09-19 17:00:44.766,174,3.48,51.03943,13.79346,114,0,143.0859,12,5,1379602844,0.08718872,-0.3839417,-0.9523621,-8.61322,-29.49931,-28.7301,151.7109,148.5725,10,0.03810238,0.02261689,-0.0009057411,2.680144,0.07426146,0.3751766,0.01943268,-0.0125548,-0.006703333,0.01226627,-0.0145904,-0.01786122,3
2013-09-19 17:00:44.808,175,3.5,51.03943,13.79346,114,0,143.0859,12,5,1379602844,0.08718872,-0.3839417,-0.9523621,-8.61322,-30.17172,-28.7301,151.7048,148.5664,10,0.005972139,0.002196043,0.01936864,2.679895,0.07560192,0.3767562,0.005723838,0.03572598,0.009778905,0.01085273,-0.02197118,-0.01464194,3
2013-09-19 17:00:44.826,176,3.52,51.03943,13.79346,114,0,143.0859,12,5,1379602844,0.06704712,-0.3714752,-0.9614868,-8.882202,-30.57518,-28.44989,151.6983,148.56,10,0.05030978,-0.002295645,0.01143801,2.680662,0.07541361,0.3762781,0.003197802,-0.01280654,0.0172693,-0.001208195,-0.007919973,-0.03018524,3
2013-09-19 17:00:44.866,177,3.54,51.03943,13.79346,114,0,143.0859,12,5,1379602844,0.05419922,-0.3755798,-0.9549866,-8.814957,-30.64241,-28.66003,151.693,148.5547,10,0.06524425,-0.0008586032,-0.008924519,2.68093,0.07509528,0.3763998,0.03275098,-0.006730331,0.01153033,-0.002725419,-0.003900471,-0.03411386,3
2013-09-19 17:00:44.886,178,3.56,51.03943,13.79346,114,0,143.0859,12,5,1379602844,0.06587219,-0.3763885,-0.9537964,-8.209793,-31.51653,-29.2905,151.7171,148.5788,10,0.009921607,0.01196825,-0.01081909,2.681104,0.07391446,0.3772106,-0.007672766,-0.003163625,-0.005838521,-0.005804448,-0.006061077,-0.01415748,3
2013-09-19 17:00:44.929,179,3.58,51.03943,13.79346,114,0,143.0859,12,5,1379602844,0.07756042,-0.3752136,-0.9496918,-8.209793,-31.51653,-29.2905,151.7171,148.5788,10,0.03078401,0.01791988,-0.006997456,2.681009,0.07392179,0.3770619,-0.00763869,0.007527873,-0.01072467,-0.003831647,-0.007191071,-0.01887941,3
2013-09-19 17:00:44.946,180,3.6,51.03943,13.79346,114,0,143.0859,12,5,1379602844,0.07292175,-0.3842926,-0.9844971,-8.075302,-30.70964,-28.73007,151.7446,148.6062,10,-0.002488191,0.02126774,0.001062868,2.680662,0.0745106,0.3774878,-0.005307931,0.002714939,0.0002099327,0.006238953,-0.01450081,-0.01979362,3
2013-09-19 17:00:44.984,181,3.62,51.03943,13.79346,114,0,143.0859,12,5,1379602844,0.0687561,-0.3812866,-0.9595032,-8.344269,-30.70964,-28.30978,151.7534,148.615,10,0.04055408,-0.006977749,0.00290471,2.680704,0.07493607,0.3772601,-0.007811802,0.006207418,0.004991153,0.004937995,-0.01675719,-0.03229746,3
2013-09-19 17:00:45.006,182,3.64,51.03943,13.79346,114,0,143.0859,12,5,1379602844,0.07644653,-0.3821106,-0.9496918,-8.680481,-30.23895,-28.66003,151.7447,148.6063,10,0.05293672,0.002634399,-0.007873636,2.680673,0.07427407,0.3776814,0.0132507,-0.01011095,-0.01158432,-0.00121165,-0.009575418,-0.02582989,3
2013-09-19 17:00:45.047,183,3.66,51.03943,13.79346,114,0,143.0859,12,5,1379602844,0.07914734,-0.3819733,-0.9303436,-8.814957,-29.70102,-28.37982,151.7275,148.5891,10,0.06649061,-0.007938617,-0.01007873,2.680508,0.07427941,0.3778522,0.03534,-0.001790147,-0.007761673,0.002831659,-0.00840953,-0.03643692,3
2013-09-19 17:00:45.066,184,3.68,51.03943,13.79346,114,0,143.0859,12,5,1379602844,0.07041931,-0.3811493,-0.9343719,-9.958084,-29.76825,-29.4306,151.6498,148.5114,10,-0.01355309,0.009389773,0.002211489,2.680117,0.07431284,0.3791587,-0.01387547,-0.02923401,-0.0009193975,0.01017599,-0.01183425,-0.003931161,3
2013-09-19 17:00:45.108,185,3.7,51.03943,13.79346,114,0,143.0859,12,5,1379602844,0.07295227,-0.3773804,-0.9768066,-9.958084,-29.76825,-29.4306,151.6498,148.5114,10,0.01118821,0.03095579,-0.01694436,2.680118,0.0741991,0.3789642,-0.03114702,0.004968361,0.002322496,0.001471704,-0.01016858,0.00176367,3
2013-09-19 17:00:45.126,186,3.72,51.03943,13.79346,114,0,143.0859,12,5,1379602844,0.08338928,-0.3929596,-0.9774933,-9.487381,-29.1631,-30.20114,151.5348,148.3964,10,0.03459766,-0.0162586,-0.01763226,2.679975,0.07507529,0.3780786,0.0009788598,-0.0005788291,-0.0177897,-0.005483378,-0.0113577,-0.05984507,3
2013-09-19 17:00:45.167,187,3.74,51.03943,13.79346,114,0,143.0859,12,5,1379602844,0.0856781,-0.3926849,-0.9214935,-9.487381,-29.1631,-30.20114,151.5348,148.3964,10,0.07870706,-0.04349581,0.002322809,2.679426,0.07486981,0.3786024,0.04881773,-0.0265715,-0.00262845,0.01388657,-0.02333735,-0.05091422,3
2013-09-19 17:00:45.186,188,3.76,51.03943,13.79346,114,0,143.0859,12,5,1379602844,0.07751465,-0.3741913,-0.943924,-9.218414,-29.96999,-30.06107,151.4558,148.3174,10,-0.01743998,0.01507589,0.02386565,2.679638,0.07390233,0.3802411,-0.02769778,-0.02124406,0.02908015,0.005352152,-0.01771063,0.01492305,3
2013-09-19 17:00:45.230,189,3.78,51.03943,13.79346,114,0,143.0859,12,5,1379602844,0.06785583,-0.3704224,-0.9470215,-9.016693,-30.70964,-29.71078,151.4404,148.302,10,0.01443673,0.0292977,0.03259389,2.679963,0.07381582,0.3797549,-0.03505789,0.01071042,0.02399484,0.005785174,-0.00938833,-0.001324892,3
2013-09-19 17:00:45.246,190,3.8,51.03943,13.79346,114,0,143.0859,12,5,1379602844,0.05067444,-0.3569489,-0.957077,-8.814957,-31.71823,-28.51993,151.4559,148.3175,10,-0.008558068,-0.005896505,-0.004892493,2.681374,0.07399388,0.3792727,-0.03012347,0.003711307,0.02169112,-0.0008169081,-0.0001773873,-0.02062918,3
2013-09-19 17:00:45.287,191,3.82,51.03943,13.79346,114,0,143.0859,12,5,1379602844,0.05215454,-0.3785706,-0.9531097,-8.814957,-31.71823,-28.51993,151.4559,148.3175,10,0.01732999,0.01203003,-0.01435817,2.681647,0.07338123,0.3783481,-0.02618909,-0.01020799,-0.004745478,-0.0174558,0.01243707,-0.03030181,3
2013-09-19 17:00:45.307,192,3.84,51.03943,13.79346,114,0,143.0859,12,5,1379602844,0.08045959,-0.3930054,-0.9765778,-8.814972,-31.44928,-28.66,151.4743,148.3359,10,0.01000896,0.03574149,-0.0230193,2.680763,0.07427118,0.3785269,0.003399278,0.0314215,-0.01792067,-0.006236472,-0.01371822,-0.01846578,3
2013-09-19 17:00:45.345,193,3.86,51.03943,13.79346,114,0,143.0859,12,5,1379602844,0.09710693,-0.3967438,-0.9868469,-8.277023,-31.58376,-28.37979,151.499,148.3606,10,0.03701368,-0.01629721,-0.01277652,2.679946,0.07537197,0.3784496,0.004716567,0.01731674,-0.02627917,0.01048734,-0.02352516,-0.04997738,3
2013-09-19 17:00:45.366,194,3.88,51.03943,13.79346,114,0,143.0859,12,5,1379602844,0.0778656,-0.3937683,-0.9235687,-8.411514,-31.31479,-28.80008,151.5133,148.3749,10,0.02197534,-0.009562613,0.01840431,2.679497,0.07464357,0.3793017,0.01435183,-0.05034654,0.003168589,0.01756398,-0.02644133,-0.01824329,3
2013-09-19 17:00:45.409,195,3.9,51.03943,13.79346,114,0,143.0859,12,5,1379602844,0.06378174,-0.3803101,-0.9480133,-8.882233,-31.91997,-29.57065,151.5183,148.3799,10,0.01936118,0.02103578,0.03269403,2.679723,0.07418868,0.3794293,0.004333078,-0.0138202,0.01855755,0.01092405,-0.02531577,0.004736013,3
2013-09-19 17:00:45.427,196,3.92,51.03943,13.79346,114,0,143.0859,12,5,1379602844,0.05656433,-0.3638153,-0.9713898,-8.142548,-32.25616,-29.64072,151.559,148.4206,10,-0.015045,-0.01103001,0.03369192,2.68096,0.07499546,0.380283,0.0005325938,0.02037089,0.02798521,-0.004661608,-0.005220542,-0.02786205,3
2013-09-19 17:00:45.469,197,3.94,51.03943,13.79346,114,0,143.0859,12,5,1379602844,0.05575562,-0.3569489,-0.9743347,-8.142548,-32.25616,-29.64072,151.559,148.4206,10,-0.0185601,-0.01203509,0.01434379,2.68156,0.07446586,0.3797976,-0.03268509,-0.01528786,0.03384545,-0.009036901,-0.004771039,-0.02965993,3
2013-09-19 17:00:45.486,198,3.96,51.03943,13.79346,114,0,143.0859,12,5,1379602844,0.06466675,-0.3812561,-0.942215,-8.277023,-32.25616,-29.22046,151.5948,148.4564,10,0.04453791,-0.03860039,-0.02705665,2.682053,0.07323799,0.3781175,0.004653445,-0.02530416,-0.01638235,-0.0122481,0.01222273,-0.0474648,3
2013-09-19 17:00:45.527,199,3.98,51.03943,13.79346,114,0,143.0859,12,5,1379602844,0.07511902,-0.3879242,-0.9265289,-7.940796,-31.91998,-28.30978,151.6319,148.4935,10,0.0297531,0.01221619,-0.02870648,2.681045,0.07271414,0.3786885,0.02080265,-0.01914399,-0.03555045,-0.00283609,-0.01155391,-0.01551995,3
2013-09-19 17:00:45.546,200,4,51.03943,13.79346,114,0,143.0859,12,5,1379602844,0.08230591,-0.3879547,-0.9582367,-8.008057,-31.71825,-28.23975,151.6651,148.5267,10,-0.0135483,-0.02138412,0.004793956,2.680178,0.07368492,0.3791367,-0.02626368,0.006422436,-0.001194746,0.01174894,-0.0187821,-0.01636164,3
2013-09-19 17:00:45.586,201,4.02,51.03943,13.79346,114,0,143.0859,12,5,1379602844,0.0806427,-0.3821564,-0.9737244,-8.47876,-31.38203,-27.60928,151.6853,148.5469,10,0.001185906,-4.340953e-05,0.004841893,2.68005,0.07384174,0.3788872,-0.03120684,-0.02558568,0.00496036,0.01376359,-0.01806786,-0.03169168,3
2013-09-19 17:00:45.606,202,4.04,51.03943,13.79346,114,0,143.0859,12,5,1379602844,0.06971741,-0.3763275,-0.9488831,-8.209793,-30.97859,-27.60928,151.7066,148.5682,10,0.02453331,-0.02483424,0.008859006,2.68011,0.07426133,0.3786037,0.01296359,-0.01250022,0.01383042,0.01263463,-0.01347897,-0.04515053,3
2013-09-19 17:00:45.646,203,4.06,51.03943,13.79346,114,0,143.0859,12,5,1379602844,0.06361389,-0.3743134,-0.9248962,-8.411499,-31.3148,-28.37982,151.7222,148.5838,10,0.02701298,-0.01177969,0.005193963,2.680229,0.07394529,0.3786657,0.006873455,-0.02903189,0.009023747,0.005009854,-0.009560972,-0.02891626,3
2013-09-19 17:00:45.666,204,4.08,51.03943,13.79346,114,0,143.0859,12,5,1379602844,0.05792236,-0.3774567,-0.9452515,-9.151184,-30.8441,-28.30978,151.7218,148.5835,10,-0.01485245,0.01522769,0.009407883,2.680657,0.07302365,0.3791585,0.02650869,0.01243151,0.009016746,-0.004163085,-0.004174503,0.001604441,3
2013-09-19 17:00:45.709,205,4.1,51.03943,13.79346,114,0,143.0859,12,5,1379602844,0.05792236,-0.3774567,-0.9452515,-9.487381,-30.5079,-29.36057,151.6932,148.5548,10,-0.03322347,0.04720293,-0.00183625,2.680894,0.07294624,0.3795092,-0.03250942,0.01102907,0.009573259,-0.007057364,-0.003863957,0.006256152,3
2013-09-19 17:00:45.727,206,4.12,51.03943,13.79346,114,0,143.0859,12,5,1379602844,0.06018066,-0.3824768,-0.9789734,-9.420151,-30.70963,-29.2905,151.6705,148.5321,10,0.03082929,0.002580337,-0.0105344,2.681338,0.07330225,0.3769267,-0.001633216,0.0090006,-0.008165359,-0.004847752,-0.007484708,-0.04968642,3
2013-09-19 17:00:45.765,207,4.14,51.03943,13.79346,114,0,143.0859,12,5,1379602844,0.06886292,-0.3813171,-0.9681854,-9.352905,-30.50789,-28.94025,151.6492,148.5109,10,0.02112739,-0.05294631,-0.01999661,2.681314,0.07313436,0.3768902,0.01314967,-0.001569353,-0.01035618,-0.00776006,-0.01444605,-0.05164528,3
2013-09-19 17:00:45.786,208,4.16,51.03943,13.79346,114,0,143.0859,12,5,1379602844,0.06227112,-0.3830872,-0.9065247,-9.218414,-30.77686,-29.22046,151.6337,148.4953,10,0.0235229,0.04643381,-0.02292689,2.680948,0.07094035,0.3771062,0.009461898,-0.01460492,-0.009119016,-0.01035836,-0.0189755,0.005291764,3
2013-09-19 17:00:45.825,209,4.18,51.03943,13.79346,114,0,143.0859,12,5,1379602844,0.07745361,-0.3781586,-0.9458313,-9.016708,-31.24754,-29.2905,151.63,148.4916,10,0.003734551,0.04623354,-0.009868343,2.680681,0.07141069,0.3772089,0.005843493,0.04228314,-0.02274828,-0.008991312,-0.01384464,0.02452532,3
2013-09-19 17:00:45.847,210,4.2,51.03943,13.79346,114,0,143.0859,12,5,1379602844,0.0690918,-0.3774567,-0.98172,-8.613251,-31.11305,-28.73007,151.6444,148.506,10,-0.03314837,0.02242568,-0.00773595,2.679932,0.07383355,0.3768097,-0.03730556,0.01957972,-0.009822553,0.003079265,-0.01427684,-0.03213219,3
2013-09-19 17:00:45.887,211,4.22,51.03943,13.79346,114,0,143.0859,12,5,1379602844,0.08799744,-0.3812561,-1.017029,-8.613251,-31.11305,-28.73007,151.6444,148.506,10,0.0111938,0.03688132,-0.01818353,2.679766,0.07435593,0.3754644,-0.02000583,0.04104724,-0.02181766,-0.006887039,-0.00487743,-0.04058648,3
2013-09-19 17:00:45.906,212,4.24,51.03943,13.79346,114,0,143.0859,12,5,1379602844,0.07698059,-0.3839111,-0.9139557,-8.680481,-30.50789,-29.64072,151.6276,148.4892,10,0.04210591,-0.08238089,-0.02563772,2.678933,0.07440783,0.375048,0.01324566,-0.09254052,-0.0146818,0.017849,-0.01495414,-0.08914395,3
2013-09-19 17:00:45.948,213,4.26,51.03943,13.79346,114,0,143.0859,12,5,1379602844,0.09854126,-0.3826294,-0.9202881,-8.47876,-30.17168,-29.991,151.6154,148.477,10,0.04448251,-0.04931588,-0.01975559,2.67863,0.07321765,0.3753025,0.02440171,-0.08648074,-0.02545482,0.004815361,-0.009804033,-0.04022034,3
2013-09-19 17:00:45.966,214,4.28,51.03943,13.79346,114,0,143.0859,12,5,1379602844,0.103714,-0.3846283,-0.9471893,-8.54599,-30.10445,-29.92096,151.6027,148.4643,10,0.009759154,0.01297226,0.00728055,2.677528,0.07311847,0.3764103,0.0008089759,0.01498536,-0.009372941,0.03060238,-0.01504496,0.007217166,3
2013-09-19 17:00:46.009,215,4.3,51.03943,13.79346,114,0,143.0859,12,5,1379602844,0.08421326,-0.3839417,-0.9475861,-8.54599,-30.10445,-29.64072,151.5923,148.4539,10,0.01331794,0.0128423,0.0218065,2.677496,0.07325511,0.3763329,-0.007977816,0.008926637,0.007464445,0.0356463,-0.01711582,-0.01966501,3
2013-09-19 17:00:46.027,216,4.32,51.03943,13.79346,114,0,143.0859,12,5,1379602845,0.06048584,-0.3687134,-0.9809418,-8.277023,-29.96997,-29.50064,151.5862,148.4478,10,-0.02002458,-0.001645301,0.03962091,2.678155,0.07374229,0.3763027,-0.01562462,-0.0008678726,0.0388174,0.01648634,-0.02828277,-0.02485996,3
2013-09-19 17:00:46.066,217,4.34,51.03943,13.79346,114,0,143.0859,12,5,1379602845,0.06266785,-0.3618317,-0.9906006,-8.075287,-30.03722,-28.87018,151.59,148.4517,10,0.01846503,-0.01648151,-0.0009113337,2.679228,0.0731299,0.3754541,-0.03148754,-0.01381455,0.02663984,-0.00748929,-0.002018367,-0.05308718,3
2013-09-19 17:00:46.086,218,4.36,51.03943,13.79346,114,0,143.0859,12,5,1379602845,0.07043457,-0.3801575,-0.9324341,-7.133896,-30.17168,-28.16968,151.6449,148.5065,10,0.0543402,-0.0125576,-0.02588246,2.679216,0.07172145,0.3755932,0.0402221,-0.0367896,-0.01589124,-0.0006703056,-0.004650728,-0.02881232,3
2013-09-19 17:00:46.127,219,4.38,51.03943,13.79346,114,0,143.0859,12,5,1379602845,0.07232666,-0.3860474,-0.9372253,-7.201141,-29.56651,-27.53922,151.677,148.5386,10,0.03915619,0.001117995,0.02095189,2.678899,0.07150858,0.3760508,0.03660263,-0.01660123,-0.0256994,-0.0007507011,-0.01006922,-0.01446981,3
2013-09-19 17:00:46.146,220,4.4,51.03943,13.79346,114,0,143.0859,12,5,1379602845,0.07260132,-0.3811951,-0.9536438,-6.864914,-29.63374,-27.04889,151.7222,148.5838,10,0.01353046,0.003606985,-0.001076183,2.679174,0.07138272,0.3769469,0.000624776,-0.01462972,0.006480047,0.0004881964,-0.002308378,-0.01189091,3
2013-09-19 17:00:46.187,221,4.42,51.03943,13.79346,114,0,143.0859,12,5,1379602845,0.07260132,-0.3931122,-0.9729004,-7.133896,-29.76823,-27.189,151.7597,148.6213,10,0.02093271,0.02378682,-0.005932191,2.679264,0.07125585,0.3768479,-0.00424052,-0.0003833979,-0.0008947786,-0.003379283,-0.005421707,-0.01094588,3
2013-09-19 17:00:46.207,222,4.44,51.03943,13.79346,114,0,143.0859,12,5,1379602845,0.07357788,-0.3851471,-0.9603424,-7.06665,-29.83549,-27.39914,151.7979,148.6595,10,0.02937094,-0.007147658,0.01605913,2.679136,0.07228969,0.3772599,0.01169691,0.003174375,0.004091923,0.005453737,-0.02473775,-0.04565097,3
2013-09-19 17:00:46.244,223,4.46,51.03943,13.79346,114,0,143.0859,12,5,1379602845,0.06474304,-0.3802948,-0.9460754,-7.671814,-29.76825,-27.3291,151.819,148.6807,10,0.02565556,-8.788431e-05,0.01839365,2.679303,0.07236971,0.3778405,0.01775924,-0.009918747,0.0150949,0.006371583,-0.01623291,-0.03331186,3
2013-09-19 17:00:46.266,224,4.48,51.03943,13.79346,114,0,143.0859,12,5,1379602845,0.05415344,-0.3696136,-0.9415131,-8.209778,-29.76825,-29.15039,151.8271,148.6888,10,-0.01976891,-0.02385473,0.01318744,2.680283,0.07148163,0.3792281,-0.005711005,-0.0006603693,0.02685483,-0.003739561,-0.01204435,-0.007946168,3
2013-09-19 17:00:46.308,225,4.5,51.03943,13.79346,114,0,143.0859,12,5,1379602845,0.04838562,-0.3707123,-0.9512787,-8.209778,-29.90273,-29.01028,151.8227,148.6843,10,-0.0381394,-0.01792254,0.004500476,2.68077,0.07066783,0.3788022,-0.03753384,-0.02784561,0.01336957,-0.01445596,-0.006779067,-0.02053739,3
2013-09-19 17:00:46.327,226,4.52,51.03943,13.79346,114,0,143.0859,12,5,1379602845,0.0592041,-0.3795319,-0.9732208,-8.882202,-30.44066,-29.2905,151.808,148.6696,10,0.02107333,-0.002101501,-0.01906797,2.681544,0.0694402,0.3770694,0.01668862,0.04469774,-0.008146804,-0.01311839,-0.009473,-0.04394381,3
2013-09-19 17:00:46.370,227,4.54,51.03943,13.79346,114,0,143.0859,12,5,1379602845,0.0884552,-0.390976,-0.9880066,-9.28566,-30.03722,-29.85089,151.7736,148.6353,10,0.04436773,0.009747969,-0.0128367,2.681493,0.06928446,0.3764382,0.003301761,-0.006100731,-0.01888294,-0.001027126,-0.00697758,-0.05697729,3
2013-09-19 17:00:46.386,228,4.56,51.03943,13.79346,114,0,143.0859,12,5,1379602845,0.07189941,-0.3928375,-0.9130707,-8.949448,-30.37343,-29.08035,151.7588,148.6204,10,0.0640421,-0.05765691,-0.006213421,2.680608,0.06972355,0.3772638,0.05353679,-0.004797548,-0.005052037,0.02368739,-0.02259792,-0.06058934,3
2013-09-19 17:00:46.432,229,4.58,51.03943,13.79346,114,0,143.0859,12,5,1379602845,0.07627869,-0.3850098,-0.940033,-8.411499,-31.04582,-28.09964,151.7743,148.6359,10,0.04539278,0.02254739,0.008833173,2.679895,0.0696578,0.3786798,0.01665338,-0.05109525,-0.0003846631,0.01818477,-0.01908454,0.002461718,3
2013-09-19 17:00:46.446,230,4.6,51.03943,13.79346,114,0,143.0859,12,5,1379602845,0.05911255,-0.3695831,-0.9501038,-7.739059,-30.10445,-26.83868,151.8242,148.6859,10,-0.002467419,-0.01540799,0.002470615,2.680635,0.07023118,0.3797141,0.02130911,0.01492704,0.02224261,-0.0002183894,0.00117865,-0.02060148,3
2013-09-19 17:00:46.493,231,4.62,51.03943,13.79346,114,0,143.0859,12,5,1379602845,0.06015015,-0.3735504,-0.9616241,-7.739059,-30.10445,-26.83868,151.8242,148.6859,10,-0.01602238,-0.003652259,0.00466932,2.680771,0.07004983,0.3796624,-0.02028835,-0.0193276,0.002651066,-0.005895821,0.001023765,-0.02359178,3
2013-09-19 17:00:46.506,232,4.64,51.03943,13.79346,114,0,143.0859,12,5,1379602845,0.0581665,-0.3656464,-0.9462738,-6.864899,-30.30617,-26.34839,151.9356,148.7972,10,0.01601119,0.02850035,-0.006012885,2.681158,0.06980367,0.3786013,0.009040156,0.008994111,0.01972348,0.001278123,0.003074519,-0.02884505,3
2013-09-19 17:00:46.547,233,4.66,51.03943,13.79346,114,0,143.0859,12,5,1379602845,0.06814575,-0.3764954,-0.9807587,-6.663193,-29.96996,-26.83871,151.9881,148.8497,10,-0.001071922,0.02976562,-0.02069622,2.681142,0.07002939,0.3787224,-0.001811391,0.02458053,-0.005832478,-0.009761711,0.002057908,-0.02331965,3
2013-09-19 17:00:46.566,234,4.68,51.03943,13.79346,114,0,143.0859,12,5,1379602845,0.08778381,-0.3927155,-0.9349365,-6.528702,-30.23894,-26.69861,152.048,148.9097,10,0.0715887,-0.0302141,-0.02800767,2.680512,0.07094143,0.3776542,0.01065925,-0.008325688,-0.02241328,0.001511025,-0.007830673,-0.07288215,3
2013-09-19 17:00:46.633,235,4.7,51.03943,13.79346,114,0,143.0859,12,5,1379602845,0.08918762,-0.3964386,-0.8943481,-6.192474,-30.30617,-27.189,152.1138,148.9754,10,0.05177265,-0.0363636,-0.01129553,2.680074,0.07077179,0.3781492,0.05376415,-0.03413437,-0.02782722,0.005602738,-0.003357575,-0.06913164,3
2013-09-19 17:00:46.727,236,4.72,51.03943,13.79346,114,0,143.0859,12,5,1379602845,0.07977295,-0.3867798,-0.9071198,-6.663193,-30.10445,-26.69861,152.3557,149.2173,10,0.00110894,-0.02380493,0.01583462,2.678991,0.07059749,0.3802617,0.03395038,-0.04028141,-0.01111588,0.02782265,-0.02628218,0.01075767,3
2013-09-19 17:00:46.767,237,4.74,51.03943,13.79346,114,0,143.0859,12,5,1379602846,0.07977295,-0.3867798,-0.9071198,-6.394226,-29.96996,-26.27832,152.412,149.2736,10,-0.02236683,0.0008420915,0.02630244,2.679037,0.0701395,0.3802392,-0.01671328,-0.02772273,0.01601428,0.02411115,-0.02529605,0.03194461,3
2013-09-19 17:00:46.805,238,4.76,51.03943,13.79346,114,0,143.0859,12,5,1379602846,0.07977295,-0.3867798,-0.9071198,-6.125244,-29.96997,-26.55853,152.5437,149.4053,10,-0.007726896,0.04457093,0.03467729,2.679401,0.06981008,0.3798083,-0.04018901,-0.003075703,0.0264821,0.01958338,-0.02676427,0.02622027,3
2013-09-19 17:00:46.849,239,4.78,51.03943,13.79346,114,0,143.0859,12,5,1379602846,0.0605011,-0.3871613,-0.9287415,-5.183838,-30.64238,-25.43771,152.7318,149.5934,10,0.01195333,0.07069601,0.03113289,2.679401,0.06981008,0.3798083,-0.04018901,-0.003075703,0.0264821,0.01958338,-0.02676427,0.02622027,3
2013-09-19 17:00:46.866,240,4.8,51.03943,13.79346,114,0,143.0859,12,5,1379602846,0.08634949,-0.3800354,-0.9572144,-5.116592,-31.11308,-24.66718,152.9507,149.8123,10,0.02830727,0.01315628,-0.004584898,2.679679,0.07005449,0.3794739,0.02902569,0.01652459,-0.01029145,0.02685559,-0.01730925,-0.0140925,3
2013-09-19 17:00:46.909,241,4.82,51.03943,13.79346,114,0,143.0859,12,5,1379602846,0.07710266,-0.4028015,-0.955368,-5.116592,-31.51653,-24.94736,153.0603,149.9219,10,-2.31695e-05,0.01418027,0.00112918,2.679575,0.07028794,0.3797555,0.01053701,0.009303704,-0.004423173,0.02859973,-0.01207332,-0.007421636,3
2013-09-19 17:00:46.927,242,4.84,51.03943,13.79346,114,0,143.0859,12,5,1379602846,0.07167053,-0.3881683,-0.9680939,-5.789032,-30.70964,-25.50775,153.1394,150.001,10,0.02182327,0.004474643,0.03401895,2.679575,0.07055886,0.3791704,0.005433121,-0.01222581,0.01857226,0.01160983,-0.0326516,-0.02870752,3
2013-09-19 17:00:46.967,243,4.86,51.03943,13.79346,114,0,143.0859,12,5,1379602846,0.06622314,-0.368576,-0.9702148,-6.125244,-30.91136,-25.858,153.2081,150.0698,10,0.02811419,-0.01310115,0.0196994,2.680321,0.07037072,0.3793486,0.002887396,0.001874754,0.02691685,0.006356682,-0.01785291,-0.04148684,3
2013-09-19 17:00:46.986,244,4.88,51.03943,13.79346,114,0,143.0859,12,5,1379602846,0.05613708,-0.3656464,-0.9385834,-6.461456,-30.30618,-26.62857,153.3078,150.1694,10,0.01347719,0.01538641,0.003687413,2.681278,0.06900029,0.3795685,-0.0006628094,-0.02284462,0.01373358,-0.003979728,0.003942589,-0.01575317,3
2013-09-19 17:00:47.031,245,4.9,51.03943,13.79346,114,0,143.0859,12,5,1379602846,0.05828857,-0.3716278,-0.9655457,-6.461456,-30.30618,-26.62857,153.3078,150.1694,10,0.01850231,0.02854456,-0.009606821,2.681529,0.06857184,0.37931,-0.004295365,0.01153445,0.003848716,-0.01047098,0.003626203,-0.01094585,3
2013-09-19 17:00:47.046,246,4.92,51.03943,13.79346,114,0,143.0859,12,5,1379602846,0.07702637,-0.392868,-0.9341888,-6.797668,-30.37343,-26.83868,153.3887,150.2504,10,0.03229642,0.001663943,-0.03707067,2.681287,0.06817406,0.3784598,0.02673945,-0.01880118,-0.02702392,-0.005118886,-0.004091284,-0.03363234,3
2013-09-19 17:00:47.086,247,4.94,51.03943,13.79346,114,0,143.0859,12,5,1379602846,0.09660339,-0.3975372,-0.9453583,-6.394226,-30.10445,-26.83868,153.4338,150.2954,10,0.03690289,0.03803553,-0.00583179,2.6808,0.06815211,0.3787908,0.01451849,-0.002191649,-0.03690834,-0.001504385,-0.01151989,-0.01918089,3
2013-09-19 17:00:47.107,248,4.96,51.03943,13.79346,114,0,143.0859,12,5,1379602846,0.07554626,-0.3871002,-0.9632111,-6.394226,-29.70102,-26.97882,153.4721,150.3337,10,0.01206625,0.01399704,0.02420094,2.679463,0.07128558,0.3811011,0.000568682,0.01504496,0.009918125,0.03048818,-0.0255944,-0.01946017,3
2013-09-19 17:00:47.149,249,4.98,51.03943,13.79346,114,0,143.0859,12,5,1379602846,0.05473328,-0.3872986,-0.9385223,-6.932159,-29.96997,-27.67929,153.491,150.3526,10,0.03652659,-0.0002636529,0.04024489,2.679735,0.07274268,0.3816022,-0.002095549,-0.005313114,0.03534734,0.0120781,-0.01466179,-0.0442491,3
2013-09-19 17:00:47.166,250,5,51.03943,13.79346,114,0,143.0859,12,5,1379602846,0.05583191,-0.3833466,-0.9404449,-7.671814,-29.49931,-27.74939,153.4875,150.3492,10,-0.007564176,0.03054539,0.01785543,2.681288,0.07148454,0.3828455,0.006623934,0.01614488,0.02084307,-0.01054315,-0.01172296,-0.008448916,3
2013-09-19 17:00:47.210,251,5.02,51.03943,13.79346,114,0,143.0859,12,5,1379602846,0.05229187,-0.3756256,-0.9588928,-7.671814,-29.49931,-27.74939,153.4875,150.3492,10,-0.003951598,0.00561421,0.02889636,2.681722,0.07140283,0.3827413,-0.02532718,0.02669962,0.01801507,-0.01034825,-0.009881753,-0.01516433,3
2013-09-19 17:00:47.226,252,5.04,51.03943,13.79346,114,0,143.0859,12,5,1379602846,0.04621887,-0.3756409,-0.9425964,-8.075272,-30.3062,-28.0296,153.4641,150.3257,10,0.01352406,0.02372504,-0.002393383,2.683547,0.06901435,0.381471,-0.006745197,-0.003862845,0.005114383,-0.02741205,0.0004141946,-0.02076196,3
2013-09-19 17:00:47.276,253,5.06,51.03943,13.79346,114,0,143.0859,12,5,1379602846,0.05656433,-0.3931885,-0.9384613,-7.537338,-30.17171,-27.46918,153.4725,150.3341,10,-0.006031261,0.02851766,-0.01591612,2.683844,0.06842309,0.3813201,-0.004242655,0.01986771,-0.002229338,-0.02988967,0.0002588996,-0.01300834,3
2013-09-19 17:00:47.286,254,5.08,51.03943,13.79346,114,0,143.0859,12,5,1379602846,0.06776428,-0.3822784,-0.9585571,-6.663193,-29.96999,-27.25906,153.5029,150.3645,10,-0.017118,0.04147687,-0.01490385,2.68341,0.068822,0.3810954,-0.02869617,0.03057634,-0.01825171,-0.008994051,-0.01340794,-0.01827563,3
2013-09-19 17:00:47.334,255,5.1,51.03943,13.79346,114,0,143.0859,12,5,1379602846,0.08239746,-0.3880005,-0.9669189,-6.461456,-30.44067,-26.90878,153.5464,150.408,10,0.003925233,0.03697453,-0.03033713,2.682704,0.06980501,0.3802512,-0.007525407,0.03923683,-0.04944825,-0.004661941,-0.005356894,-0.03529888,3
2013-09-19 17:00:47.346,256,5.12,51.03943,13.79346,114,0,143.0859,12,5,1379602846,0.103653,-0.3820343,-1.02153,-6.797668,-30.37344,-26.97885,153.5786,150.4402,10,0.0138021,0.01337839,-0.03251267,2.681131,0.07266498,0.3789945,-0.02131268,0.01877855,-0.01810625,0.02807095,-0.01403141,-0.06999658,3
2013-09-19 17:00:47.396,257,5.14,51.03943,13.79346,114,0,143.0859,12,5,1379602846,0.1056366,-0.3984985,-0.9673615,-7.201126,-30.23897,-27.25906,153.5956,150.4572,10,0.04954838,-0.03374491,-0.03789172,2.680729,0.0730755,0.3787808,-0.003964264,0.00952035,-0.0323483,0.02225268,-0.004571206,-0.09133831,3
2013-09-19 17:00:47.406,258,5.16,51.03943,13.79346,114,0,143.0859,12,5,1379602846,0.1136322,-0.4099579,-0.917923,-8.142517,-30.23895,-27.95956,153.5888,150.4504,10,0.08232869,-0.04118898,0.009593772,2.678656,0.07239235,0.3807411,0.08456988,-0.06235816,-0.02613962,0.03848698,-0.0268899,-0.04140359,3
2013-09-19 17:00:47.459,259,5.18,51.03943,13.79346,114,0,143.0859,12,5,1379602846,0.1058655,-0.407135,-0.9171295,-8.142517,-30.23895,-27.95956,153.5888,150.4504,10,0.006875749,-0.01946957,0.05812562,2.678468,0.07174349,0.3817345,0.06456187,-0.04504388,0.009756859,0.04540094,-0.03558085,-0.01165381,3
2013-09-19 17:00:47.525,260,5.2,51.03943,13.79346,114,0,143.0859,12,5,1379602846,0.03849792,-0.3708191,-0.9418335,-8.075256,-30.57515,-28.02963,153.5139,150.3755,10,0.00437877,-0.01241779,0.06168067,2.681584,0.07018126,0.3836089,0.01245852,-0.03272084,0.06101287,-0.004251312,-0.004102698,-0.01340884,3
2013-09-19 17:00:47.551,261,5.22,51.03943,13.79346,114,0,143.0859,12,5,1379602846,0.05291748,-0.3863983,-0.9491882,-7.201111,-30.64238,-27.67932,153.53,150.3916,10,0.06048465,0.01587244,-0.02838317,2.684231,0.06793892,0.3830881,0.03388036,-0.003658522,-0.0004699408,-0.03757526,0.01840926,-0.03899568,3
2013-09-19 17:00:47.599,262,5.24,51.03943,13.79346,114,0,143.0859,12,5,1379602846,0.05291748,-0.3863983,-0.9491882,-6.192459,-30.70963,-27.3291,153.5797,150.4413,10,0.03461523,0.02637834,-0.02390107,2.684231,0.06793892,0.3830881,0.03388036,-0.003658522,-0.0004699408,-0.03757526,0.01840926,-0.03899568,3
2013-09-19 17:00:47.704,263,5.26,51.03943,13.79346,114,0,143.0859,12,5,1379602847,0.06587219,-0.3813324,-0.9624634,-7.739059,-31.44928,-27.39914,153.7377,150.5994,10,0.02482066,0.01691773,-0.02758023,2.683685,0.06802598,0.3837482,0.0168495,0.02252399,-0.02373813,-0.01868763,0.004647712,-0.01465039,3
2013-09-19 17:00:47.739,264,5.28,51.03943,13.79346,114,0,143.0859,12,5,1379602847,0.06587219,-0.3813324,-0.9624634,-7.739059,-31.31479,-27.81943,153.7444,150.606,10,0.02361904,-0.01620214,-0.02741245,2.683238,0.06847284,0.3838406,0.007054999,0.01306339,-0.02741729,-0.007395162,-0.008953744,-0.03467166,3
2013-09-19 17:00:47.766,265,5.3,51.03943,13.79346,114,0,143.0859,12,5,1379602847,0.06201172,-0.3764648,-0.9577179,-6.999374,-31.24756,-27.18896,153.7873,150.6489,10,0.007638212,-0.01744104,-0.02758422,2.683238,0.06847284,0.3838406,0.007054999,0.01306339,-0.02741729,-0.007395162,-0.008953744,-0.03467166,3
2013-09-19 17:00:47.813,266,5.32,51.03943,13.79346,114,0,143.0859,12,5,1379602847,0.04017639,-0.3845673,-0.9407654,-5.923492,-31.38203,-27.18896,153.8477,150.7093,10,0.01230753,-0.01651479,0.000227434,2.681338,0.0692188,0.3856657,0.02125839,0.0232785,0.028221,-0.007305399,-0.008147047,-0.01610026,3
2013-09-19 17:00:47.827,267,5.34,51.03943,13.79346,114,0,143.0859,12,5,1379602847,0.04933167,-0.3806,-0.9656982,-6.39418,-31.3148,-27.39914,153.893,150.7547,10,0.01355576,0.01192164,-0.004742824,2.682452,0.06700317,0.3849472,-0.01650245,-0.002514093,-0.009478446,-0.02187691,-0.009057079,-0.01602677,3
2013-09-19 17:00:47.866,268,5.36,51.03943,13.79346,114,0,143.0859,12,5,1379602847,0.06910706,-0.3794403,-0.9855652,-5.923477,-31.651,-26.62857,153.96,150.8217,10,0.01852388,0.01554674,-0.01074266,2.682258,0.06695427,0.3846457,-0.005409942,0.002290435,-0.01300164,-0.007038241,-0.007200245,-0.02624104,3
2013-09-19 17:00:47.887,269,5.38,51.03943,13.79346,114,0,143.0859,12,5,1379602847,0.06147766,-0.3931122,-0.9403076,-5.856247,-31.58377,-27.11896,154.0244,150.886,10,0.03486211,-0.02306883,-0.04656404,2.681226,0.06743228,0.3851383,0.0329855,-0.02804001,-0.04137895,0.006661778,-0.003752996,-0.06092491,3
2013-09-19 17:00:47.929,270,5.4,51.03943,13.79346,114,0,143.0859,12,5,1379602847,0.08610535,-0.3868713,-0.9475403,-5.990723,-31.58377,-27.11896,154.0847,150.9463,10,0.03842063,0.002844522,-0.03459446,2.680608,0.06714153,0.385726,0.01704676,-0.02686633,-0.0463918,-0.0006839506,-0.01688027,-0.01586969,3
2013-09-19 17:00:47.946,271,5.42,51.03943,13.79346,114,0,143.0859,12,5,1379602847,0.08563232,-0.3946533,-0.9205017,-5.990738,-31.58379,-27.67932,154.1964,151.058,10,0.02207574,0.0367178,0.002460228,2.678595,0.06856517,0.3870966,0.02419097,-0.01643942,-0.02102098,0.02138138,-0.01622107,-0.01020308,3
2013-09-19 17:00:47.987,272,5.44,51.03943,13.79346,114,0,143.0859,12,5,1379602847,0.08000183,-0.3997498,-0.9476013,-6.259705,-31.58379,-27.53922,154.244,151.1057,10,0.01587963,0.05676634,0.00590263,2.677952,0.07007211,0.3883825,0.004269199,0.03293243,0.002628161,0.02362441,-0.02180554,0.004763972,3
2013-09-19 17:00:48.006,273,5.46,51.03943,13.79346,114,0,143.0859,12,5,1379602847,0.05908203,-0.3883972,-0.9780121,-6.32695,-31.38205,-26.62857,154.2909,151.1525,10,-0.04200151,-0.01576085,0.02375966,2.678481,0.07242092,0.3883131,-0.02906865,0.01371433,0.02046691,0.0006869371,-0.01552209,-0.0460085,3
2013-09-19 17:00:48.049,274,5.48,51.03943,13.79346,114,0,143.0859,12,5,1379602847,0.06141663,-0.3776093,-0.9924774,-6.595932,-31.24757,-26.90878,154.326,151.1876,10,-0.01859632,-0.007339938,0.01793905,2.678901,0.07208456,0.3876137,-0.05980762,-0.01954509,0.02392715,-0.002790545,-0.01130203,-0.04967412,3
2013-09-19 17:00:48.066,275,5.5,51.03943,13.79346,114,0,143.0859,12,5,1379602847,0.05276489,-0.3774261,-0.9212341,-6.663193,-31.31482,-26.41846,154.3628,151.2244,10,0.05658951,0.006159625,-0.004230964,2.679428,0.0710676,0.3870854,0.0522918,-0.008245894,-0.001440083,-0.0036814,0.0009957431,-0.0388792,3
2013-09-19 17:00:48.110,276,5.52,51.03943,13.79346,114,0,143.0859,12,5,1379602847,0.05276489,-0.3774261,-0.9212341,-6.797668,-31.31482,-25.57785,154.4022,151.2638,10,0.01855185,-0.004547081,-0.01183988,2.679371,0.0710512,0.3877729,0.03878109,0.002374533,-0.004063298,-0.006836895,-0.0003056677,-0.02181845,3
2013-09-19 17:00:48.126,277,5.54,51.03943,13.79346,114,0,143.0859,12,5,1379602847,0.07441711,-0.391037,-0.9573975,-7.06665,-30.91138,-26.55856,154.4524,151.314,10,0.02337616,0.04153626,-0.006001966,2.678704,0.07121756,0.3873003,-0.02498551,0.02718844,-0.02543172,0.004456121,-0.01035621,-0.01365566,3
2013-09-19 17:00:48.168,278,5.56,51.03943,13.79346,114,0,143.0859,12,5,1379602847,0.07537842,-0.3890228,-0.9516144,-7.06665,-30.91138,-26.55856,154.4524,151.314,10,-0.004803543,-0.008177236,-0.01208063,2.678438,0.07200736,0.3874409,0.005568543,0.03775153,-0.005834388,0.008643849,-0.0180996,-0.02908077,3
2013-09-19 17:00:48.187,279,5.58,51.03943,13.79346,114,0,143.0859,12,5,1379602847,0.07156372,-0.3851471,-0.9546051,-7.402863,-30.70966,-26.48849,154.4886,151.3502,10,0.0296258,0.02272955,-0.01548655,2.677887,0.07235005,0.3867377,-0.01650791,0.00103371,-0.008294732,0.003593233,-0.009961681,-0.02992228,3
2013-09-19 17:00:48.229,280,5.6,51.03943,13.79346,114,0,143.0859,12,5,1379602847,0.07919312,-0.395874,-0.9563446,-7.604584,-30.5079,-26.97888,154.486,151.3476,10,0.04571609,0.03474413,-0.02865135,2.677343,0.07313871,0.3870068,0.02775625,0.01895431,-0.01031297,0.003909769,-0.008735857,-0.03392186,3
2013-09-19 17:00:48.246,281,5.62,51.03943,13.79346,114,0,143.0859,12,5,1379602847,0.06759644,-0.3931427,-0.9633484,-7.604584,-30.23897,-26.69864,154.4811,151.3428,10,-0.009807623,-0.02012897,-0.001207211,2.676506,0.07457729,0.3874676,-0.02263442,-0.009617519,-0.009513159,0.002456849,-0.01520619,-0.03416316,3
2013-09-19 17:00:48.291,282,5.64,51.03943,13.79346,114,0,143.0859,12,5,1379602847,0.05787659,-0.3833618,-0.950058,-7.402863,-30.44067,-26.90878,154.4816,151.3432,10,0.008636631,-0.0117733,-0.0022541,2.676475,0.07425443,0.3870061,-0.02761554,-0.0239111,-0.001040721,-8.085839e-05,-0.01174254,-0.03694259,3
2013-09-19 17:00:48.306,283,5.66,51.03943,13.79346,114,0,143.0859,12,5,1379602847,0.08616638,-0.392868,-0.9639282,-7.06665,-30.23895,-26.55853,154.4884,151.35,10,0.01735902,0.02863564,-0.01927703,2.676567,0.07318523,0.3866939,0.006761389,0.005866833,-0.004433845,-0.009844224,-0.006233301,-0.02637623,3
2013-09-19 17:00:48.347,284,5.68,51.03943,13.79346,114,0,143.0859,12,5,1379602847,0.08616638,-0.392868,-0.9639282,-7.06665,-30.23895,-26.55853,154.4884,151.35,10,0.01606019,0.02145176,-0.01080258,2.676415,0.07337534,0.3867092,-0.0005019402,0.02490638,-0.01910374,-0.00019274,-0.00710421,-0.03197957,3
2013-09-19 17:00:48.367,285,5.7,51.03943,13.79346,114,0,143.0859,12,5,1379602847,0.08203125,-0.3928223,-0.9437561,-6.864899,-31.11307,-26.48849,154.5318,151.3934,10,0.03810877,-0.04840508,0.005517804,2.675434,0.0749724,0.3862934,0.02272838,-0.01658142,-0.0005124322,0.01899612,-0.01618682,-0.06235892,3
2013-09-19 17:00:48.407,286,5.72,51.03943,13.79346,114,0,143.0859,12,5,1379602847,0.07617188,-0.3889465,-0.9380798,-6.730423,-30.70963,-26.34842,154.5564,151.4181,10,0.0195966,-0.002380067,0.008681373,2.675192,0.07426526,0.3866522,0.02024466,-0.05212689,0.00568784,0.01331171,-0.01573234,-0.02013236,3
2013-09-19 17:00:48.426,287,5.74,51.03943,13.79346,114,0,143.0859,12,5,1379602847,0.07023621,-0.3870087,-0.9266205,-6.528702,-30.77686,-26.41846,154.5873,151.4489,10,0.04430968,0.02744094,-0.008105331,2.675079,0.0742208,0.3881548,0.04480935,0.003572189,0.00324347,0.004743135,-0.00362945,-0.01511068,3
2013-09-19 17:00:48.469,288,5.76,51.03943,13.79346,114,0,143.0859,12,5,1379602847,0.05769348,-0.3813171,-0.9317474,-7.133865,-30.57515,-27.04892,154.5946,151.4562,10,0.007394267,0.01661919,-0.003630155,2.674991,0.07447798,0.3888608,0.02644917,0.02372047,-0.007935517,-0.001669422,-0.009873025,0.001877886,3
2013-09-19 17:00:48.486,289,5.78,51.03943,13.79346,114,0,143.0859,12,5,1379602847,0.06396484,-0.3883209,-0.9769287,-7.671814,-29.90274,-28.30981,154.5678,151.4294,10,0.01714916,0.04734461,0.002347044,2.674958,0.07473344,0.3876391,-0.03994599,0.04723621,-0.01483787,-0.006456295,-0.009203284,-0.02381682,3
2013-09-19 17:00:48.532,290,5.8,51.03943,13.79346,114,0,143.0859,12,5,1379602847,0.0696106,-0.390152,-0.9633179,-7.671814,-29.90274,-28.30981,154.5678,151.4294,10,0.02230531,0.007376157,-0.02031273,2.67502,0.07532887,0.387328,-0.0007537276,0.04365916,0.002519691,-0.0009876207,-0.01643412,-0.05160346,3
2013-09-19 17:00:48.547,291,5.82,51.03943,13.79346,114,0,143.0859,12,5,1379602847,0.07043457,-0.3851166,-0.9420776,-8.411499,-30.64238,-28.52005,154.4979,151.3595,10,0.04313416,-0.01038606,-0.01032641,2.674818,0.07499202,0.3867604,0.0006017845,0.004738527,-0.008116399,0.0002228793,-0.01296194,-0.03978497,3
2013-09-19 17:00:48.587,292,5.84,51.03943,13.79346,114,0,143.0859,12,5,1379602847,0.08087158,-0.3937531,-0.9292908,-8.61322,-31.11308,-28.73019,154.4624,151.3241,10,0.002650644,-0.02345526,-0.01915718,2.674545,0.07502463,0.3874832,0.02522843,-0.01407347,-0.01015319,0.004821367,-0.01510021,-0.02159622,3
2013-09-19 17:00:48.606,293,5.86,51.03943,13.79346,114,0,143.0859,12,5,1379602847,0.07493591,-0.3957977,-0.9245758,-9.083908,-31.18031,-28.66016,154.4172,151.2788,10,0.02330985,0.04383031,0.001227717,2.673855,0.07471182,0.3871274,0.006698341,0.001235584,-0.006813027,0.01175297,-0.0162231,-0.005876589,3
2013-09-19 17:00:48.645,294,5.88,51.03943,13.79346,114,0,143.0859,12,5,1379602847,0.07228088,-0.3870239,-0.9352722,-9.285645,-31.24756,-28.87033,154.3678,151.2294,10,0.01091523,0.04841068,0.01192883,2.673709,0.07523919,0.3878163,0.005363605,0.04017843,0.001409698,0.005349902,-0.0176299,-0.001457785,3
2013-09-19 17:00:48.666,295,5.9,51.03943,13.79346,114,0,143.0859,12,5,1379602847,0.07264709,-0.3822021,-0.9584656,-9.151154,-30.8441,-29.85101,154.25,151.1116,10,9.58738e-06,0.001194161,-0.001213869,2.674112,0.07633555,0.3870192,-0.0388941,0.01516165,0.003466437,-0.001834384,-0.0009118926,-0.03329307,3
2013-09-19 17:00:48.706,296,5.92,51.03943,13.79346,114,0,143.0859,12,5,1379602847,0.06176758,-0.3892517,-0.95961,-9.151154,-30.8441,-29.85101,154.25,151.1116,10,0.00129403,0.01191445,-0.00850081,2.674267,0.07610533,0.3864335,-0.01793773,-0.002458691,-0.001031568,-0.002691466,-0.01033493,-0.04073175,3
2013-09-19 17:00:48.726,297,5.94,51.03943,13.79346,114,0,143.0859,12,5,1379602847,0.06929016,-0.3870392,-0.9304962,-8.209778,-30.8441,-29.85101,154.1636,151.0252,10,0.02846786,-0.0363865,-0.01759098,2.674232,0.07590925,0.3857751,-0.008016294,0.01431464,-0.01669637,-0.008495351,-0.01297429,-0.03577102,3
2013-09-19 17:00:48.765,298,5.96,51.03943,13.79346,114,0,143.0859,12,5,1379602847,0.06929016,-0.3870392,-0.9304962,-8.209778,-30.8441,-29.85101,154.1636,151.0252,10,0.02716691,0.02272102,-0.01551398,2.67387,0.07522488,0.3853785,0.01047871,-0.04001303,-0.01740055,0.005858602,-0.009191472,-0.03145451,3
2013-09-19 17:00:48.786,299,5.98,51.03943,13.79346,114,0,143.0859,12,5,1379602847,0.07221985,-0.3998871,-0.9506683,-7.806305,-31.651,-28.73019,154.1478,151.0094,10,-0.01477628,-0.01073227,0.003514574,2.6732,0.07615032,0.3852313,-0.020371,-0.03195862,-0.00571854,0.007074486,-0.001423772,-0.03048765,3
2013-09-19 17:00:48.832,300,6,51.03943,13.79346,114,0,143.0859,12,5,1379602847,0.07221985,-0.3998871,-0.9506683,-8.209793,-31.38203,-28.73019,154.1308,150.9924,10,0.007395332,0.04029709,-0.006173474,2.673176,0.07590733,0.3849205,-0.03276499,-0.01435579,0.00370379,0.008800791,-0.01637549,-0.01579726,3
2013-09-19 17:00:48.902,301,6.02,51.03943,13.79346,114,0,143.0859,12,5,1379602847,0.07641602,-0.394989,-0.9679565,-8.747726,-31.91997,-28.1698,154.0885,150.9501,10,0.0210182,0.01204308,-0.01431715,2.673088,0.07615754,0.3849097,-0.01059217,0.03667339,-0.005984082,-0.001272673,-0.01850645,-0.01405608,3
2013-09-19 17:00:48.951,302,6.04,51.03943,13.79346,114,0,143.0859,12,5,1379602847,0.06761169,-0.3862,-0.9527588,-8.209793,-32.18893,-27.74954,154.0761,150.9377,10,0.03562271,-0.04134158,0.007866179,2.674042,0.0759934,0.3855526,0.02261815,-0.006993527,-0.002960872,-0.007374004,-0.001354908,-0.03377087,3
2013-09-19 17:00:48.966,303,6.06,51.03943,13.79346,114,0,143.0859,12,5,1379602847,0.07015991,-0.3869934,-0.9208374,-8.008057,-31.3148,-28.23987,154.0685,150.9301,10,0.03209429,-0.01394911,-0.01284443,2.674027,0.0735895,0.3854886,0.004222134,-0.0496251,-0.004140228,-0.003354027,-0.00330634,-0.02292978,3
2013-09-19 17:00:49.013,304,6.08,51.03943,13.79346,114,0,143.0859,12,5,1379602848,0.07894897,-0.3967743,-0.9370422,-7.873566,-31.71823,-28.23987,154.0714,150.933,10,0.01471769,0.01540266,0.002494317,2.67386,0.07332356,0.38564,0.01410575,-0.01757296,-0.01265507,0.00545608,-0.001991066,-0.003513547,3
2013-09-19 17:00:49.026,305,6.1,51.03943,13.79346,114,0,143.0859,12,5,1379602848,0.07318115,-0.4028473,-0.954483,-7.873566,-31.18031,-28.09976,154.0685,150.9302,10,-0.00618093,-0.0107139,0.004817659,2.673611,0.07401299,0.3856565,-0.04752985,-0.007321349,0.004707396,0.01043471,-0.0206068,-0.01302719,3
2013-09-19 17:00:49.074,306,6.12,51.03943,13.79346,114,0,143.0859,12,5,1379602848,0.07318115,-0.4028473,-0.954483,-7.402863,-31.51651,-27.32919,154.0863,150.9479,10,0.01581625,0.004608068,0.01825783,2.673571,0.0741694,0.3853868,-0.02416398,-0.01433381,0.005005821,0.01247993,-0.01992595,-0.03121679,3
2013-09-19 17:00:49.086,307,6.14,51.03943,13.79346,114,0,143.0859,12,5,1379602848,0.06283569,-0.3932343,-0.9721069,-6.595947,-31.24756,-26.34851,154.1563,151.0179,10,-0.003868242,-0.01678564,0.02177667,2.674309,0.07410379,0.386037,-0.0231491,0.002003093,0.02786365,0.004517289,-0.02629679,-0.02385736,3
2013-09-19 17:00:49.130,308,6.16,51.03943,13.79346,114,0,143.0859,12,5,1379602848,0.06596375,-0.3803711,-0.9682465,-6.595947,-31.24756,-26.34851,154.1563,151.0179,10,0.03176485,-0.01904932,0.02460122,2.675128,0.07274407,0.3854886,-0.02184582,-0.02040682,0.02196589,-0.004510611,-0.01722236,-0.0479427,3
2013-09-19 17:00:49.146,309,6.18,51.03943,13.79346,114,0,143.0859,12,5,1379602848,0.06617737,-0.3715363,-0.9721375,-6.461456,-30.97859,-25.92816,154.2388,151.1004,10,0.0009970876,-0.00617161,0.02660178,2.676237,0.07115072,0.3854459,0.00151038,-0.007304583,0.02094826,-0.003191735,-0.007282644,-0.01794386,3
2013-09-19 17:00:49.189,310,6.2,51.03943,13.79346,114,0,143.0859,12,5,1379602848,0.06391907,-0.3784027,-0.9576721,-7.402863,-30.97859,-26.76877,154.2547,151.1163,10,0.0109669,-0.03795084,0.01481516,2.676733,0.07067446,0.3851645,-0.01698337,-0.009795367,0.02679187,-0.008404746,-0.004751076,-0.032425,3
2013-09-19 17:00:49.206,311,6.22,51.03943,13.79346,114,0,143.0859,12,5,1379602848,0.07669067,-0.4006653,-0.9177551,-8.478745,-31.24757,-27.74948,154.2404,151.102,10,0.0333734,-0.04703702,-0.01506364,2.676957,0.06905413,0.3840564,0.02513437,-0.03651709,-0.006392599,0.006736391,-0.002619656,-0.02680898,3
2013-09-19 17:00:49.252,312,6.24,51.03943,13.79346,114,0,143.0859,12,5,1379602848,0.06877136,-0.3733673,-0.946991,-8.814957,-31.3148,-27.95959,154.2188,151.0804,10,0.003556652,0.002234925,0.0145129,2.676595,0.06876907,0.3843896,0.01538694,-0.05065962,-0.01487448,0.01462278,-0.006049098,-0.01614269,3
2013-09-19 17:00:49.266,313,6.26,51.03943,13.79346,114,0,143.0859,12,5,1379602848,0.06137085,-0.3890991,-0.924881,-8.680466,-31.18031,-27.95959,154.1775,151.0391,10,-0.01360955,-0.0001430118,0.009505888,2.67687,0.06840251,0.3844115,-0.03036958,-0.03336085,0.01348986,0.002358595,0.0006850301,-0.01255703,3
2013-09-19 17:00:49.310,314,6.28,51.03943,13.79346,114,0,143.0859,12,5,1379602848,0.06137085,-0.3890991,-0.924881,-8.680466,-31.18031,-27.95959,154.1775,151.0391,10,-0.01241752,0.04362151,0.009280051,2.677108,0.06807136,0.3840275,-0.0315911,-0.003761388,0.00969368,-0.002487139,-0.0055914,0.00202707,3
2013-09-19 17:00:49.326,315,6.3,51.03943,13.79346,114,0,143.0859,12,5,1379602848,0.06610107,-0.385376,-0.9884949,-7.739075,-30.77686,-26.69873,154.1792,151.0409,10,-0.03952397,0.01268038,0.01880325,2.677937,0.06890024,0.3831491,-0.05384672,0.02206098,0.02137538,0.001743664,-0.02027614,-0.03518843,3
2013-09-19 17:00:49.370,316,6.32,51.03943,13.79346,114,0,143.0859,12,5,1379602848,0.06813049,-0.3853912,-0.9952087,-7.873566,-31.18031,-27.11902,154.1866,151.0483,10,-0.02226509,-0.004963866,0.01547084,2.678298,0.06890076,0.3820765,-0.05750363,0.009061671,0.01899135,0.00221916,-0.01252796,-0.06280407,3
2013-09-19 17:00:49.386,317,6.34,51.03943,13.79346,114,0,143.0859,12,5,1379602848,0.06687927,-0.3842926,-0.9682007,-7.873566,-30.91136,-26.97891,154.1929,151.0545,10,0.04804582,-0.05417668,-0.005203817,2.679038,0.06824192,0.3812653,0.02008143,-0.02247995,0.007958397,3.134247e-05,-0.008428472,-0.06638226,3
2013-09-19 17:00:49.433,318,6.36,51.03943,13.79346,114,0,143.0859,12,5,1379602848,0.06710815,-0.3889771,-0.9141388,-8.814972,-31.04582,-27.53934,154.1737,151.0353,10,0.04558506,-0.05182005,-0.005244297,2.67902,0.06751216,0.3812942,0.03006333,-0.05779605,-0.00501568,-0.0003144696,-0.005441433,-0.05964844,3
2013-09-19 17:00:49.446,319,6.38,51.03943,13.79346,114,0,143.0859,12,5,1379602848,0.05212402,-0.3656616,-0.9290161,-8.814972,-30.77686,-28.37991,154.1189,150.9805,10,-0.01755742,0.02678394,0.03587171,2.679096,0.06538757,0.3826638,-0.004654922,0.01396681,0.02076137,0.006477812,-0.008641392,0.02406426,3
2013-09-19 17:00:49.489,320,6.4,51.03943,13.79346,114,0,143.0859,12,5,1379602848,0.04450989,-0.3707886,-0.9552155,-8.814972,-30.77686,-28.37991,154.1189,150.9805,10,-0.02353888,0.02221023,0.01772254,2.679521,0.06552397,0.3823457,-0.03553715,0.02316565,0.03605963,-0.003040391,0.001683647,0.009480231,3
2013-09-19 17:00:49.506,321,6.42,51.03943,13.79346,114,0,143.0859,12,5,1379602848,0.0592041,-0.3824921,-0.9790039,-9.083939,-31.04579,-28.94031,154.0562,150.9178,10,-0.01601705,0.01529453,0.002151834,2.680011,0.06606757,0.3807398,-0.01421336,0.0284455,-0.01201644,-0.01673619,-0.004170782,-0.04136313,3
2013-09-19 17:00:49.548,322,6.44,51.03943,13.79346,114,0,143.0859,12,5,1379602848,0.0592041,-0.3824921,-0.9790039,-8.277023,-30.77684,-28.0997,154.0467,150.9083,10,-0.02202993,0.009502425,-0.01236985,2.680079,0.06629157,0.3803746,-0.03399822,0.01167505,0.002340129,-0.008407761,-0.01419917,-0.0371827,3
2013-09-19 17:00:49.567,323,6.46,51.03943,13.79346,114,0,143.0859,12,5,1379602848,0.06272888,-0.3872375,-0.9528351,-7.806305,-30.97856,-28.16974,154.0521,150.9137,10,0.05794612,0.008672317,-0.0187151,2.679725,0.06657834,0.3797269,0.03741189,0.01440912,-0.008948763,-0.005607154,-0.01281709,-0.04460526,3
2013-09-19 17:00:49.610,324,6.48,51.03943,13.79346,114,0,143.0859,12,5,1379602848,0.07435608,-0.3959656,-0.9602814,-7.671829,-31.38202,-28.16974,154.0656,150.9272,10,0.02839223,0.01443433,-0.01424791,2.679487,0.06668937,0.3803532,0.03996494,0.005050822,-0.01852597,-0.00392455,-0.01412747,-0.03419334,3
2013-09-19 17:00:49.626,325,6.5,51.03943,13.79346,114,0,143.0859,12,5,1379602848,0.05979919,-0.3823395,-0.946167,-6.730438,-30.97858,-27.60934,154.1016,150.9632,10,-0.02466327,-0.000170176,0.008175372,2.678644,0.06723614,0.3810965,0.004158059,-0.01536974,0.0004997836,0.01014434,-0.01516167,-0.02841463,3
2013-09-19 17:00:49.672,326,6.52,51.03943,13.79346,114,0,143.0859,12,5,1379602848,0.05357361,-0.366806,-0.9724121,-6.595947,-31.11307,-27.18906,154.145,151.0066,10,0.008806541,0.003804059,-0.02285818,2.678903,0.06672096,0.3805101,-0.04264368,-0.003790563,0.008364097,-0.00210361,-0.01094539,-0.01975754,3
2013-09-19 17:00:49.686,327,6.54,51.03943,13.79346,114,0,143.0859,12,5,1379602848,0.08100891,-0.3938141,-0.9418335,-7.402863,-31.11305,-27.04895,154.1988,151.0604,10,0.04570304,0.01223669,-0.02490695,2.677986,0.06674545,0.3798839,0.05868613,0.01016521,-0.05093748,-0.005636061,-0.002814021,-0.0389364,3
2013-09-19 17:00:49.738,328,6.56,51.03943,13.79346,115,0,143.0859,12,5,1379602849,0.07917786,-0.3928986,-0.9505615,-7.402863,-31.11305,-27.04895,154.1988,151.0604,10,0.01374591,-0.009176188,-0.02393995,2.677293,0.06757803,0.380655,0.02771741,0.008614876,-0.024718,0.01457736,-0.01544953,-0.01756056,3
2013-09-19 17:00:49.746,329,6.58,51.03943,13.79346,115,0,143.0859,12,5,1379602849,0.07917786,-0.3928986,-0.9505615,-8.680466,-30.50787,-27.39917,154.1814,151.043,10,0.0111898,0.003729491,-0.01438134,2.676721,0.06803773,0.3810608,-0.00423763,-0.01279579,-0.02375175,0.01790021,-0.02190867,-0.01571058,3
2013-09-19 17:00:49.791,330,6.6,51.03943,13.79346,115,0,143.0859,12,5,1379602849,0.073349,-0.388031,-0.9439392,-8.814941,-30.23892,-27.95959,154.1487,151.0104,10,0.02452984,-0.008264322,0.007561513,2.675691,0.0698072,0.3816393,0.02488795,0.009630129,-0.002984369,0.016597,-0.01355926,-0.02957301,3
2013-09-19 17:00:49.808,331,6.62,51.03943,13.79346,115,0,143.0859,12,5,1379602849,0.06654358,-0.3802032,-0.9325104,-9.016678,-30.44066,-29.01035,154.0697,150.9313,10,0.007298127,0.02835095,0.005962019,2.675828,0.07012634,0.3820049,0.0001936099,0.01061063,0.008804652,0.0006555786,-0.0005551612,-0.006932992,3
2013-09-19 17:00:49.845,332,6.64,51.03943,13.79346,115,0,143.0859,12,5,1379602849,0.05577087,-0.3863068,-0.9404449,-9.016678,-30.44066,-29.01035,154.0697,150.9313,10,-0.009979131,0.02940183,0.01300608,2.675976,0.07032042,0.3820514,-0.01086062,0.02478836,0.006189693,0.001346904,-0.007378461,-0.006901888,3
2013-09-19 17:00:49.866,333,6.66,51.03943,13.79346,115,0,143.0859,12,5,1379602849,0.05636597,-0.3776245,-0.9771271,-7.201126,-30.64238,-28.37988,154.0704,150.9321,10,0.03577238,0.07365558,-0.02052418,2.676838,0.06993771,0.3815024,0.007688283,0.03798833,-0.006951406,-0.02242203,-0.007399736,-0.03419979,3
2013-09-19 17:00:49.907,334,6.68,51.03943,13.79346,115,0,143.0859,12,5,1379602849,0.06600952,-0.3883209,-0.9846191,-5.721802,-30.77686,-25.85806,154.1394,151.001,10,0.03832449,0.05245868,-0.02883058,2.676768,0.07039677,0.3814017,0.01761321,0.07008478,-0.02029308,-0.01676143,-0.005494256,-0.0485508,3
2013-09-19 17:00:49.927,335,6.7,51.03943,13.79346,115,0,143.0859,12,5,1379602849,0.06941223,-0.3900757,-0.9459381,-5.183853,-31.04581,-25.85806,154.2248,151.0864,10,0.02352983,-0.03760996,-0.01522503,2.675765,0.07068977,0.3806973,-0.01542057,-0.04705181,-0.02726492,0.005241896,-0.01666139,-0.05264217,3
2013-09-19 17:00:49.963,336,6.72,51.03943,13.79346,115,0,143.0859,12,5,1379602849,0.0721283,-0.3899536,-0.9275665,-5.116592,-30.97856,-25.50778,154.3127,151.1743,10,0.06654494,0.01698138,-0.0186645,2.675458,0.07013836,0.3807682,0.00536693,-0.04118346,-0.01499307,0.003572398,-0.01853349,-0.036275,3
2013-09-19 17:00:49.986,337,6.74,51.03943,13.79346,115,0,143.0859,12,5,1379602849,0.0632019,-0.3666077,-0.959671,-5.856277,-31.04579,-25.99814,154.3772,151.2388,10,0.002443983,0.02958799,-0.001341967,2.674471,0.07101748,0.3830726,0.02619219,0.02628194,-0.0127149,0.006313478,-0.01618145,-0.002383963,3
2013-09-19 17:00:50.027,338,6.76,51.03943,13.79346,115,0,143.0859,12,5,1379602849,0.05683899,-0.3764343,-0.932724,-6.595932,-31.51649,-26.6286,154.4208,151.2824,10,0.01357174,-0.00700145,-0.004639493,2.674451,0.07167716,0.3830146,-0.0292482,0.01529959,0.0012117,-0.001805706,-0.0114745,-0.01897701,3
2013-09-19 17:00:50.046,339,6.78,51.03943,13.79346,115,0,143.0859,12,5,1379602849,0.07209778,-0.3929138,-0.9304352,-8.478745,-31.51651,-28.16971,154.3957,151.2573,10,0.02224032,0.07123077,-0.01945519,2.674079,0.0716158,0.3824467,0.0285481,0.04652129,-0.02121136,-0.009546098,-0.003242837,-0.007347787,3
2013-09-19 17:00:50.086,340,6.8,51.03943,13.79346,115,0,143.0859,12,5,1379602849,0.0763855,-0.3850555,-0.9496765,-8.814957,-31.44926,-28.23975,154.372,151.2336,10,-0.01097489,0.04622928,-0.01486124,2.673784,0.07255927,0.3830141,0.003922822,0.06769953,-0.01918736,0.004855015,-0.01919591,-0.005333384,3
2013-09-19 17:00:50.107,341,6.82,51.03943,13.79346,115,0,143.0859,12,5,1379602849,0.07324219,-0.382431,-1.010574,-9.218414,-31.58376,-28.23975,154.3392,151.2009,10,0.03077336,0.05579056,-0.009618539,2.673219,0.07556221,0.3822826,0.001391392,0.07826608,-0.01203166,0.009502969,-0.008094763,-0.03799722,3
2013-09-19 17:00:50.147,342,6.84,51.03943,13.79346,115,0,143.0859,12,5,1379602849,0.07316589,-0.3804169,-0.9989777,-9.083939,-31.44926,-28.09967,154.3089,151.1705,10,0.04082439,-0.02088424,-0.02598793,2.673026,0.076685,0.382265,0.01245597,0.05226275,-0.009352131,0.01252257,-0.01505386,-0.06108015,3
2013-09-19 17:00:50.166,343,6.86,51.03943,13.79346,115,0,143.0859,12,5,1379602849,0.09805298,-0.4072418,-0.9182587,-8.344269,-31.51649,-28.02963,154.2961,151.1577,10,0.08387946,0.01125958,-0.03171851,2.671008,0.07694763,0.3836843,0.07538296,-0.01698616,-0.03602399,0.008032674,-0.0146376,-0.03085068,3
2013-09-19 17:00:50.208,344,6.88,51.03943,13.79346,115,0,143.0859,12,5,1379602849,0.09344482,-0.4044495,-0.9376678,-7.671829,-31.382,-27.46924,154.3027,151.1643,10,0.04675606,0.01678138,-0.005605688,2.670415,0.07719092,0.3846707,0.06548351,0.007768197,-0.03144122,0.02089777,-0.01924683,0.0115185,3
2013-09-19 17:00:50.227,345,6.9,51.03943,13.79346,115,0,143.0859,12,5,1379602849,0.06825256,-0.3900146,-0.9305267,-6.663193,-31.31476,-26.27841,154.3613,151.2229,10,0.03061623,-2.31695e-05,0.01362021,2.670406,0.07754489,0.3856353,-0.00259963,-0.02258261,0.02349215,0.01403745,-0.01955829,-0.01409097,3
2013-09-19 17:00:50.267,346,6.92,51.03943,13.79346,115,0,143.0859,12,5,1379602849,0.07096863,-0.3968353,-0.9227142,-6.663193,-31.31476,-26.27841,154.3613,151.2229,10,0.02196735,0.0377812,0.01452435,2.670589,0.07730721,0.3857899,0.01222331,-0.003512236,0.01389678,-0.003301359,-0.01372351,-0.006792456,3
2013-09-19 17:00:50.286,347,6.94,51.03943,13.79346,115,0,143.0859,12,5,1379602849,0.04956055,-0.379715,-0.984024,-6.932159,-31.04579,-26.83881,154.4204,151.282,10,-0.01135359,0.01029525,0.03120239,2.671613,0.07819269,0.3858865,-0.01992349,0.02221558,0.0315048,-0.0135006,-0.01392399,-0.03991241,3
2013-09-19 17:00:50.326,348,6.96,51.03943,13.79346,115,0,143.0859,12,5,1379602849,0.05262756,-0.3757629,-0.9878387,-7.806305,-30.57512,-27.74948,154.4056,151.2673,10,0.04426067,-0.003392601,0.0005123922,2.672263,0.07756838,0.3853144,-0.02974661,0.006803468,0.03148009,-0.01666377,-0.007633402,-0.04358966,3
2013-09-19 17:00:50.346,349,6.98,51.03943,13.79346,115,0,143.0859,12,5,1379602849,0.06192017,-0.3774261,-0.9529114,-7.806305,-30.44063,-28.45001,154.3856,151.2472,10,0.02365074,-0.02800527,-0.02976242,2.672485,0.07653475,0.3856978,0.02350946,-0.04219736,-0.01351841,-0.008800763,0.0007327425,-0.03487062,3
2013-09-19 17:00:50.387,350,7,51.03943,13.79346,115,0,143.0859,12,5,1379602849,0.07641602,-0.3811035,-0.9458313,-8.411499,-30.10443,-28.37994,154.3459,151.2075,10,0.05443714,-0.01245054,-0.0367463,2.672146,0.07616088,0.3857906,0.005199208,-0.03146268,-0.02947474,-0.008406938,0.004755455,-0.03199508,3
2013-09-19 17:00:50.406,351,7.02,51.03943,13.79346,115,0,143.0859,12,5,1379602849,0.07435608,-0.3870392,-0.9458466,-8.411499,-31.7182,-28.52005,154.3022,151.1639,10,0.01865624,-0.03876258,-0.02010181,2.670629,0.07620293,0.3864931,-0.00346606,-0.02563931,-0.02356732,0.01461513,-0.009928868,-0.02400684,3
2013-09-19 17:00:50.444,352,7.04,51.03943,13.79346,115,0,143.0859,12,5,1379602849,0.07206726,-0.3968811,-0.9342804,-8.411499,-31.7182,-28.52005,154.3022,151.1639,10,0.03699823,-0.02341744,-0.01032374,2.670425,0.0758147,0.3864522,0.0002038275,-0.04222015,-0.01981412,0.01292784,-0.01692472,-0.02881648,3
2013-09-19 17:00:50.466,353,7.06,51.03943,13.79346,115,0,143.0859,12,5,1379602849,0.0761261,-0.3919067,-0.9380646,-8.411499,-31.58372,-28.09973,154.273,151.1346,10,0.0174208,-0.01864852,-0.02143259,2.6693,0.07584918,0.3879732,0.0247694,0.004101457,-0.02702396,0.001922673,-0.01856812,-0.01126413,3
2013-09-19 17:00:50.506,354,7.08,51.03943,13.79346,115,0,143.0859,12,5,1379602849,0.07402039,-0.3908844,-0.9226685,-8.142532,-32.12164,-28.37991,154.2682,151.1299,10,0.03814552,0.009642773,-0.004456001,2.668882,0.07587182,0.3882764,-0.001078211,-0.02206799,-0.02113382,0.002032539,-0.01435069,-0.01429457,3
2013-09-19 17:00:50.526,355,7.1,51.03943,13.79346,115,0,143.0859,12,5,1379602849,0.08285522,-0.4096222,-0.9590912,-8.142532,-31.31474,-28.0997,154.2555,151.1171,10,-0.03455691,0.03050971,0.0115187,2.668277,0.07726941,0.3899345,-0.03207403,0.04145339,0.002315988,0.0004556421,-0.02160552,-0.0005095893,3
2013-09-19 17:00:50.567,356,7.12,51.03943,13.79346,115,0,143.0859,12,5,1379602849,0.06999207,-0.3952637,-1.003799,-8.613235,-31.11304,-27.88956,154.2292,151.0908,10,-0.01494167,0.03170254,0.01776675,2.668419,0.0779258,0.3899036,-0.05304446,0.0270933,0.01181705,0.01085102,-0.0295229,-0.03695241,3
2013-09-19 17:00:50.586,357,7.14,51.03943,13.79346,115,0,143.0859,12,5,1379602849,0.08618164,-0.3720398,-0.9302368,-8.747711,-31.38199,-28.16977,154.1753,151.0369,10,0.04900563,0.009455553,0.01860191,2.669473,0.07747105,0.3892653,0.03427672,-0.02819979,0.01430129,0.003332292,-0.005760377,-0.0707204,3
2013-09-19 17:00:50.627,358,7.16,51.03943,13.79346,115,0,143.0859,12,5,1379602849,0.06269836,-0.3733673,-0.9278107,-8.747711,-31.38199,-28.16977,154.1753,151.0369,10,0.02577114,-0.02245231,0.00765286,2.669705,0.07728675,0.389757,0.03051616,0.006038089,0.01890057,0.00730089,0.01659082,-0.02362164,3
2013-09-19 17:00:50.646,359,7.18,51.03943,13.79346,115,0,143.0859,12,5,1379602849,0.08950806,-0.3860321,-0.9870605,-8.882202,-30.97856,-28.45001,154.1063,150.9679,10,0.02108478,0.0476317,-0.02537513,2.66986,0.07764359,0.3894114,-0.01978259,0.04037689,-0.002351427,-0.009060105,0.006276627,-0.005465179,3
2013-09-19 17:00:50.687,360,7.2,51.03943,13.79346,115,0,143.0859,12,5,1379602849,0.08950806,-0.3860321,-0.9870605,-8.68045,-30.64235,-28.23981,154.0704,150.932,10,0.07033701,-0.04208114,-0.02433543,2.669546,0.07834913,0.3887448,0.002545158,0.04422881,-0.02505892,0.000477496,0.001662072,-0.05041471,3
2013-09-19 17:00:50.707,361,7.22,51.03943,13.79346,115,0,143.0859,12,5,1379602849,0.09991455,-0.406189,-0.9095306,-8.478745,-30.97856,-28.02966,154.0457,150.9073,10,0.01831696,0.005846704,0.01345056,2.667973,0.07772919,0.3906686,-0.006143385,-0.03402466,-0.007829328,0.02431481,-0.02646564,0.003573591,3
2013-09-19 17:00:50.748,362,7.24,51.03943,13.79346,115,0,143.0859,12,5,1379602849,0.08061218,-0.396637,-0.9128723,-8.411484,-31.18028,-27.81952,154.0275,150.8891,10,-0.01141644,0.02087998,0.03717959,2.668169,0.07754637,0.3906514,-0.0002212792,0.002446005,0.01376598,0.02828227,-0.02539814,0.01235176,3
2013-09-19 17:00:50.766,363,7.26,51.03943,13.79346,115,0,143.0859,12,5,1379602849,0.05023193,-0.3835449,-0.9637299,-8.613205,-31.382,-27.74945,153.9919,150.8535,10,-0.01137463,-0.002750247,0.03489487,2.669847,0.07773685,0.3895804,-0.06062273,0.005602487,0.03240075,-0.009080104,-0.008444354,-0.03442074,3
2013-09-19 17:00:50.810,364,7.28,51.03943,13.79346,115,0,143.0859,12,5,1379602849,0.04701233,-0.3894196,-0.949295,-8.613205,-31.382,-27.74945,153.9919,150.8535,10,0.003465838,-0.004968393,0.02541561,2.670477,0.07740089,0.3890736,-0.02989913,-0.00614018,0.0352221,-0.01256931,-0.007036343,-0.04299396,3
2013-09-19 17:00:50.826,365,7.3,51.03943,13.79346,115,0,143.0859,12,5,1379602849,0.05415344,-0.3795319,-0.9578552,-8.882172,-30.70961,-28.73013,153.926,150.7876,10,-0.008577509,-0.008285627,-0.002465288,2.671393,0.07643999,0.387834,-0.02962292,0.009553708,0.002547492,-0.01380917,-0.01015198,-0.03281394,3
2013-09-19 17:00:50.873,366,7.32,51.03943,13.79346,115,0,143.0859,12,5,1379602849,0.05888367,-0.3833618,-0.9519653,-8.814926,-30.91133,-29.08035,153.8878,150.7494,10,-0.006040582,0.001279649,-0.01214641,2.671613,0.07588075,0.3871274,-0.02710464,-0.01168049,-0.002136232,-0.01406088,-0.007922293,-0.04700417,3
2013-09-19 17:00:50.886,367,7.34,51.03943,13.79346,115,0,143.0859,12,5,1379602849,0.08418274,-0.3869019,-0.95047,-9.151154,-30.84409,-29.71078,153.8379,150.6995,10,0.02723269,0.008588162,-0.021472,2.671016,0.07561405,0.3861572,0.007539728,0.01828063,-0.02967697,-0.006029761,0.002196004,-0.03012594,3
2013-09-19 17:00:50.931,368,7.36,51.03943,13.79346,115,0,143.0859,12,5,1379602849,0.08100891,-0.3937988,-0.9408722,-9.151154,-30.70961,-29.2905,153.7902,150.6518,10,0.02242142,-0.014988,-0.03105406,2.670693,0.07584598,0.3863178,0.008707267,0.005189665,-0.02112271,0.01205588,-0.01016743,-0.02881397,3
2013-09-19 17:00:50.946,369,7.38,51.03943,13.79346,115,0,143.0859,12,5,1379602850,0.07345581,-0.3821411,-0.9449158,-9.151154,-30.70961,-28.7301,153.7475,150.6091,10,-0.02580417,0.009394035,-0.002754241,2.669864,0.07645503,0.3864472,-0.01729726,-0.001026438,0.0003488546,0.01026111,-0.0168988,-0.01732408,3
2013-09-19 17:00:50.986,370,7.4,51.03943,13.79346,115,0,143.0859,12,5,1379602850,0.07373047,-0.3753052,-0.9565277,-8.949417,-31.18028,-28.94028,153.7151,150.5767,10,-0.003667173,0.01303218,-0.003734018,2.669873,0.07684267,0.3860925,-0.04432739,0.005999618,-0.002406425,0.002339752,-0.005569726,-0.02126189,3
2013-09-19 17:00:51.007,371,7.42,51.03943,13.79346,115,0,143.0859,12,5,1379602850,0.06663513,-0.3782654,-0.9373627,-9.285645,-31.11307,-28.59006,153.64,150.5016,10,-0.01082868,0.02626596,-0.02923645,2.669641,0.07643356,0.3840724,-0.02814037,-0.02449131,-0.02258063,0.007023703,0.001362516,-0.04456993,3
2013-09-19 17:00:51.050,372,7.44,51.03943,13.79346,115,0,143.0859,12,5,1379602850,0.07827759,-0.3899689,-0.9525299,-8.814926,-31.58376,-28.52002,153.621,150.4826,10,-0.007251787,0.01786901,-0.01587164,2.669445,0.07638533,0.3839245,-0.02935474,0.02287071,-0.02888853,-0.008209982,-0.007655288,-0.00422804,3
2013-09-19 17:00:51.066,373,7.46,51.03943,13.79346,115,0,143.0859,12,5,1379602850,0.06600952,-0.3813782,-0.9750061,-8.814926,-31.85272,-28.66013,153.6043,150.4659,10,0.008859538,-0.007975102,-0.02762204,2.668924,0.07773592,0.3821172,-0.02958041,0.03446231,-0.005987044,-0.01080799,-0.008614465,-0.05870476,3
2013-09-19 17:00:51.110,374,7.48,51.03943,13.79346,115,0,143.0859,12,5,1379602850,0.07437134,-0.3979492,-0.9651184,-8.814926,-31.98721,-29.08041,153.5868,150.4484,10,0.02980983,0.008727712,-0.03472283,2.668717,0.07768066,0.3817512,-0.009678809,-0.01138053,-0.02724246,-0.005991459,-0.01279931,-0.05749667,3
2013-09-19 17:00:51.127,375,7.5,51.03943,13.79346,115,0,143.0859,12,5,1379602850,0.08491516,-0.3887787,-0.9330902,-8.209747,-31.78548,-29.15045,153.581,150.4426,10,0.02967161,-0.01865305,-0.01646739,2.667498,0.0781551,0.3823213,0.01610937,-0.01369186,-0.02332048,0.0147959,-0.02079991,-0.04762628,3
2013-09-19 17:00:51.170,376,7.52,51.03943,13.79346,115,0,143.0859,12,5,1379602850,0.07926941,-0.3800354,-0.936142,-8.008011,-31.71822,-28.94031,153.5806,150.4422,10,0.03690582,0.03448767,-0.005812349,2.667161,0.07807818,0.3826389,0.01113499,-0.02205883,-0.01608756,0.007796223,-0.01157894,-0.01316244,3
2013-09-19 17:00:51.186,377,7.54,51.03943,13.79346,115,0,143.0859,12,5,1379602850,0.07518005,-0.3929138,-0.9409943,-8.478714,-31.382,-29.01035,153.5416,150.4032,10,-0.03571485,0.02229811,0.004307663,2.666882,0.07968678,0.3836156,-0.01615989,-0.01769371,0.01134693,0.005452644,-0.005759696,-0.01176716,3
2013-09-19 17:00:51.228,378,7.56,51.03943,13.79346,115,0,143.0859,12,5,1379602850,0.07792664,-0.3802948,-0.988266,-8.478714,-31.382,-29.01035,153.5416,150.4032,10,0.03192677,0.04387265,0.0001166465,2.667033,0.07954787,0.3832968,-0.05424709,0.0188954,0.0046866,-0.003507406,-0.01301331,0.001743921,3
2013-09-19 17:00:51.246,379,7.58,51.03943,13.79346,115,0,143.0859,12,5,1379602850,0.08703613,-0.3937988,-0.9552155,-9.083893,-31.31477,-28.66013,153.4844,150.346,10,0.01005237,-0.01511477,-0.02274127,2.66671,0.0813762,0.3824143,0.00620385,-0.01735301,-0.0149627,0.01284203,-0.01277906,-0.03921674,3
2013-09-19 17:00:51.287,380,7.6,51.03943,13.79346,115,0,143.0859,12,5,1379602850,0.08010864,-0.3829346,-0.9293365,-8.613205,-31.11305,-27.74945,153.469,150.3306,10,0.03444719,-0.01642531,-0.0007331683,2.666375,0.08146632,0.3823346,-0.008482974,-0.01851517,-0.02236351,0.01460259,-0.01674402,-0.03623368,3
2013-09-19 17:00:51.306,381,7.62,51.03943,13.79346,115,0,143.0859,12,5,1379602850,0.06686401,-0.3773651,-0.9556885,-8.747696,-31.51651,-28.02963,153.4539,150.3156,10,0.007416371,0.01546018,-0.006037652,2.66657,0.08206676,0.3834617,0.01079483,0.04031037,0.0161583,-0.002672265,-0.007962374,-0.01101831,3
2013-09-19 17:00:51.347,382,7.64,51.03943,13.79346,115,0,143.0859,12,5,1379602850,0.07063293,-0.3851929,-0.9594421,-8.478714,-31.24754,-27.74948,153.4435,150.3051,10,0.009808422,0.005923669,0.002491121,2.666601,0.08228686,0.3833641,-0.0111171,0.0120614,-0.005660379,-0.001673247,-0.002178264,-0.01969618,3
2013-09-19 17:00:51.366,383,7.66,51.03943,13.79346,115,0,143.0859,12,5,1379602850,0.07546997,-0.3930359,-0.9660797,-8.344223,-31.24756,-27.4693,153.4437,150.3053,10,0.01487216,0.02386033,-0.01565726,2.666567,0.08226131,0.3829112,0.009839917,0.01811767,-0.01270154,-0.005585055,-0.01157042,-0.03499794,3
2013-09-19 17:00:51.405,384,7.68,51.03943,13.79346,115,0,143.0859,12,5,1379602850,0.07546997,-0.3930359,-0.9660797,-8.545944,-31.3148,-28.80023,153.4244,150.286,10,0.04673129,-0.004554804,-0.0006607303,2.666366,0.08249398,0.3829598,-0.003663035,0.02045858,-0.01527898,0.002944638,-0.02129097,-0.04542502,3
2013-09-19 17:00:51.427,385,7.7,51.03943,13.79346,115,0,143.0859,12,5,1379602850,0.07144165,-0.3851166,-0.9449463,-8.276978,-31.44928,-28.37994,153.4163,150.2779,10,0.05665982,0.0121568,-0.0127126,2.666295,0.08161631,0.3840068,0.03069746,-0.007896445,-0.007445754,-0.003002235,-0.008525008,-0.03050519,3
2013-09-19 17:00:51.465,386,7.72,51.03943,13.79346,115,0,143.0859,12,5,1379602850,0.08569336,-0.3966522,-0.9301453,-8.613205,-31.51651,-28.45001,153.4009,150.2625,10,0.02967907,-0.002071407,-0.01897209,2.666108,0.08159892,0.3845695,0.0381031,0.008734497,-0.01228211,-0.00411337,-0.009956477,-0.02107057,3
2013-09-19 17:00:51.486,387,7.74,51.03943,13.79346,115,0,143.0859,12,5,1379602850,0.08181763,-0.392746,-0.925415,-8.276978,-30.64236,-28.66013,153.3803,150.2419,10,0.02206669,0.009479522,0.006229933,2.665463,0.0821169,0.3856398,-0.008751391,-0.002238736,0.004153601,0.00603066,-0.01070409,-0.009715491,3
2013-09-19 17:00:51.528,388,7.76,51.03943,13.79346,115,0,143.0859,12,5,1379602850,0.07356262,-0.3821716,-0.9536133,-8.411453,-30.64236,-28.23981,153.3592,150.2208,10,-0.008754076,0.02229785,0.01426576,2.66545,0.08231761,0.385764,0.003514423,0.006060693,0.006659382,0.008748329,-0.008559582,-0.004894524,3
2013-09-19 17:00:51.546,389,7.78,51.03943,13.79346,115,0,143.0859,12,5,1379602850,0.07304382,-0.3774109,-0.9845276,-8.276962,-30.91133,-28.52002,153.3338,150.1954,10,0.01104546,0.03434918,-0.001271659,2.666136,0.08247276,0.3847419,-0.02718676,-0.007033426,0.003973712,-0.002626516,1.477548e-05,-0.03278286,3
2013-09-19 17:00:51.586,390,7.8,51.03943,13.79346,115,0,143.0859,12,5,1379602850,0.07304382,-0.3774109,-0.9845276,-8.276962,-30.91133,-28.52002,153.3338,150.1954,10,0.03454599,-0.01868341,-0.01158422,2.666244,0.08287612,0.3843322,0.00976569,0.02158717,-0.006633838,9.40238e-06,-0.01322824,-0.06149965,3
2013-09-19 17:00:51.606,391,7.82,51.03943,13.79346,115,0,143.0859,12,5,1379602850,0.08132935,-0.3840179,-0.9524841,-8.411453,-30.3734,-28.8002,153.2914,150.153,10,0.0481164,-0.01029738,-0.01751401,2.665754,0.08201528,0.3845575,0.02950298,-0.00904685,-0.01107455,0.006198012,-0.017719,-0.02955102,3
2013-09-19 17:00:51.650,392,7.84,51.03943,13.79346,115,0,143.0859,12,5,1379602850,0.07891846,-0.3908234,-0.9245148,-8.411453,-30.64236,-29.64081,153.2612,150.1228,10,0.01487269,-0.002182727,-0.01310089,2.665504,0.08199565,0.3849186,0.02956084,-0.01371803,-0.0170841,0.005418524,-0.008534266,-0.02876905,3
2013-09-19 17:00:51.666,393,7.86,51.03943,13.79346,115,0,143.0859,12,5,1379602850,0.07209778,-0.3978577,-0.9371796,-8.613205,-30.44064,-29.29056,153.226,150.0876,10,0.008542089,-0.01424605,0.008622783,2.664989,0.08245296,0.385176,-0.003814796,-0.01285321,0.00305963,0.006835126,-0.01217146,-0.02400213,3
2013-09-19 17:00:51.708,394,7.88,51.03943,13.79346,115,0,143.0859,12,5,1379602851,0.0736084,-0.3811951,-0.9565125,-7.940765,-30.44064,-29.15042,153.209,150.0706,10,0.005987319,0.0223378,0.01563728,2.665078,0.08209538,0.3853472,-0.0100105,-0.0176654,0.009052422,7.533377e-05,-0.01996258,-0.0154636,3
